Nb
as received
Sample dimentions in mm: 0.7000 x 0.000 x 14.18
Photocell sensitivity 0.056 V/mm, Optic arm 328 mm
User: Iva
H 21 440 2.0 450 120 1.000  20 1.0E-1
23.11.2013, 23:09

T[K]   F[Hz]  Theta[rad]   Modulus  MaxStrain Center[mm] Time[s] TOven[K]
426.40 1.000576 1.767732E-2 0.659990  3.441E-5 8.30751 26 440.00
426.43 1.000576 1.764975E-2 0.659981  3.443E-5 8.30767 56 440.25
426.44 1.000576 1.743047E-2 0.660059  3.449E-5 8.30709 86 440.80
426.42 1.000576 1.726768E-2 0.660229  3.435E-5 8.30709 116 441.40
426.44 1.000576 1.806965E-2 0.660490  3.429E-5 8.30618 146 442.10
426.52 1.000576 1.782932E-2 0.660084  3.432E-5 8.30663 175 443.00
426.55 1.000576 1.804190E-2 0.660174  3.438E-5 8.30603 205 443.95
426.64 1.000576 1.782653E-2 0.660035  3.453E-5 8.30726 235 444.95
426.77 1.000576 1.756265E-2 0.659851  3.432E-5 8.30533 265 445.95
426.96 1.000576 1.772693E-2 0.660306  3.444E-5 8.30758 295 447.00
427.11 1.000576 1.769707E-2 0.659682  3.440E-5 8.30579 324 448.00
427.35 1.000576 1.799931E-2 0.659461  3.442E-5 8.30730 354 448.60
427.63 1.000576 1.792388E-2 0.659384  3.445E-5 8.30566 384 449.10
427.92 1.000576 1.816005E-2 0.659420  3.434E-5 8.30607 414 449.40
428.21 1.000576 1.811821E-2 0.659327  3.445E-5 8.30531 444 449.60
428.50 1.000576 1.840369E-2 0.659083  3.438E-5 8.30459 473 449.80
428.81 1.000576 1.813774E-2 0.658785  3.446E-5 8.30569 503 449.95
429.13 1.000576 1.824993E-2 0.658522  3.460E-5 8.30496 533 450.05
429.45 1.000576 1.867394E-2 0.658432  3.444E-5 8.30412 563 450.10
429.76 1.000576 1.849251E-2 0.658165  3.448E-5 8.30455 593 450.20
430.06 1.000576 1.865492E-2 0.658162  3.443E-5 8.30454 622 450.20
430.36 1.000576 1.872613E-2 0.658141  3.441E-5 8.30313 652 450.30
430.64 1.000576 1.881115E-2 0.657662  3.449E-5 8.30213 682 450.20
430.92 1.000576 1.891477E-2 0.657475  3.454E-5 8.30299 712 450.25
431.19 1.000576 1.859126E-2 0.657405  3.465E-5 8.30176 742 450.30
431.44 1.000576 1.872971E-2 0.657177  3.452E-5 8.30059 771 450.30
431.68 1.000576 1.900558E-2 0.656957  3.457E-5 8.30121 801 450.25
431.91 1.000576 1.936134E-2 0.656744  3.453E-5 8.29992 831 450.20
432.13 1.000576 1.896680E-2 0.656564  3.449E-5 8.29919 861 450.20
432.34 1.000576 1.922083E-2 0.656572  3.451E-5 8.29902 891 450.20
432.55 1.000576 1.902680E-2 0.656183  3.457E-5 8.29843 920 450.20
432.73 1.000576 1.927550E-2 0.656331  3.449E-5 8.29729 950 450.20
432.92 1.000576 1.972540E-2 0.656197  3.461E-5 8.29812 980 450.10
433.08 1.000576 1.916453E-2 0.655902  3.466E-5 8.29596 1010 450.10
433.24 1.000576 1.954010E-2 0.655804  3.467E-5 8.29548 1040 450.10
433.39 1.000576 1.954458E-2 0.655823  3.447E-5 8.29445 1069 450.10
433.54 1.000576 1.953304E-2 0.655673  3.461E-5 8.29513 1099 450.10
433.67 1.000576 1.967579E-2 0.655466  3.465E-5 8.29485 1129 450.10
433.80 1.000576 1.940125E-2 0.655235  3.463E-5 8.29456 1159 450.10
433.92 1.000576 1.935133E-2 0.655161  3.449E-5 8.29464 1189 450.05
434.03 1.000576 1.944219E-2 0.655338  3.465E-5 8.29382 1218 450.05
434.14 1.000576 1.991272E-2 0.655015  3.454E-5 8.29160 1248 450.00
434.25 1.000576 1.989490E-2 0.654800  3.461E-5 8.29180 1278 450.10
434.35 1.000576 1.985239E-2 0.655008  3.472E-5 8.29219 1308 450.00
434.45 1.000576 1.964914E-2 0.654778  3.479E-5 8.29046 1338 450.00
434.55 1.000576 1.990049E-2 0.654897  3.479E-5 8.29162 1367 450.00
434.63 1.000576 1.966269E-2 0.654665  3.459E-5 8.29162 1397 450.05
434.71 1.000576 1.967192E-2 0.654553  3.465E-5 8.28848 1427 450.05
434.79 1.000576 1.940711E-2 0.654606  3.464E-5 8.29011 1457 450.05
434.87 1.000576 1.990582E-2 0.654112  3.464E-5 8.28819 1487 450.00
434.93 1.000576 1.967225E-2 0.654264  3.474E-5 8.28747 1516 450.00
435.00 1.000576 1.927775E-2 0.654183  3.473E-5 8.28824 1546 450.00
435.06 1.000576 1.976054E-2 0.654258  3.461E-5 8.28715 1576 450.05
435.13 1.000576 2.001689E-2 0.654049  3.459E-5 8.28708 1606 450.05
435.19 1.000576 1.986234E-2 0.653994  3.461E-5 8.28679 1636 450.00
435.25 1.000576 1.989648E-2 0.654120  3.452E-5 8.28535 1665 450.00
435.31 1.000576 2.004832E-2 0.654023  3.459E-5 8.28454 1695 450.00
435.37 1.000576 2.031606E-2 0.654112  3.463E-5 8.28508 1725 450.00
435.41 1.000576 1.987800E-2 0.654260  3.472E-5 8.28482 1755 450.00
435.46 1.000576 1.995063E-2 0.653786  3.472E-5 8.28571 1785 450.00
435.50 1.000576 1.970875E-2 0.653573  3.464E-5 8.28556 1814 450.00
435.55 1.000576 2.000397E-2 0.653601  3.474E-5 8.28595 1844 450.00
435.59 1.000576 2.014108E-2 0.653692  3.463E-5 8.28425 1874 450.00
435.64 1.000576 1.942029E-2 0.653639  3.473E-5 8.28423 1904 450.00
435.67 1.000576 1.994198E-2 0.653606  3.474E-5 8.28401 1934 450.00
435.71 1.000576 1.979703E-2 0.653493  3.463E-5 8.28323 1963 450.00
435.75 1.000576 2.006451E-2 0.653431  3.479E-5 8.28416 1993 450.00
435.79 1.000576 2.002101E-2 0.653394  3.471E-5 8.28327 2023 450.05
435.82 1.000576 2.033685E-2 0.653467  3.462E-5 8.28180 2053 450.00
435.86 1.000576 2.017620E-2 0.653394  3.468E-5 8.28287 2083 450.00
435.89 1.000576 2.011862E-2 0.653360  3.475E-5 8.28325 2112 450.00
435.92 1.000576 2.020934E-2 0.653319  3.474E-5 8.28255 2142 450.00
435.95 1.000576 2.017083E-2 0.653107  3.475E-5 8.28268 2172 450.00
436.01 1.000576 1.955886E-2 0.653233  3.475E-5 8.28268 2202 450.00
436.01 1.000576 2.001608E-2 0.653268  3.488E-5 8.28208 2232 450.00
436.03 1.000576 2.029190E-2 0.653112  3.483E-5 8.28169 2261 450.00
436.06 1.000576 1.971763E-2 0.653019  3.464E-5 8.28197 2291 450.00
436.08 1.000576 2.053662E-2 0.653388  3.478E-5 8.28124 2321 450.00
436.11 1.000576 2.026315E-2 0.653190  3.480E-5 8.28040 2351 450.00
436.13 1.000576 2.011112E-2 0.653064  3.476E-5 8.28047 2381 450.00
436.16 1.000576 1.951555E-2 0.653259  3.475E-5 8.28047 2410 450.00
436.18 1.000576 2.026678E-2 0.653066  3.470E-5 8.28112 2440 450.00
436.21 1.000576 2.006380E-2 0.652902  3.483E-5 8.27978 2470 450.00
436.22 1.000576 2.027301E-2 0.652779  3.478E-5 8.28092 2500 450.00
436.24 1.000576 2.001592E-2 0.652881  3.472E-5 8.28028 2530 450.00
436.26 1.000576 2.036193E-2 0.652716  3.478E-5 8.28055 2559 450.00
436.27 1.000576 2.016911E-2 0.652833  3.480E-5 8.27981 2589 450.00
436.28 1.000576 2.025267E-2 0.653080  3.482E-5 8.28188 2619 450.00
436.30 1.000576 1.998928E-2 0.652774  3.476E-5 8.27941 2649 450.00
436.32 1.000576 2.007881E-2 0.652794  3.475E-5 8.27950 2679 450.00
436.34 1.000576 2.034500E-2 0.652742  3.478E-5 8.27938 2708 450.00
436.37 1.000576 2.038517E-2 0.652608  3.480E-5 8.27926 2738 450.00
436.38 1.000576 1.977931E-2 0.652386  3.458E-5 8.28020 2768 450.00
436.40 1.000576 2.017361E-2 0.652948  3.487E-5 8.27904 2798 450.00
436.42 1.000576 2.020946E-2 0.652958  3.478E-5 8.27836 2828 450.00
436.42 1.000576 1.999029E-2 0.652621  3.476E-5 8.27876 2857 450.00
436.43 1.000576 2.024216E-2 0.652361  3.476E-5 8.27869 2887 450.00
436.48 1.000576 2.026223E-2 0.652416  3.477E-5 8.27676 2917 450.00
436.45 1.000576 2.019326E-2 0.652690  3.469E-5 8.27667 2947 450.00
436.47 1.000576 2.023000E-2 0.652761  3.476E-5 8.27780 2977 450.00
436.52 1.000576 2.054307E-2 0.652697  3.482E-5 8.27817 3006 450.00
436.56 1.000576 2.040988E-2 0.652537  3.480E-5 8.27788 3036 450.00
436.55 1.000576 2.020680E-2 0.652567  3.485E-5 8.27795 3066 450.00
436.56 1.000576 1.998840E-2 0.652585  3.469E-5 8.27678 3096 450.00
436.57 1.000576 1.998454E-2 0.652416  3.471E-5 8.27714 3126 450.00
436.58 1.000576 2.047348E-2 0.652588  3.479E-5 8.27850 3155 450.00
436.58 1.000576 2.046517E-2 0.652667  3.481E-5 8.27792 3185 450.00
436.62 1.000576 2.017837E-2 0.652630  3.473E-5 8.27682 3215 450.00
436.60 1.000576 2.059103E-2 0.652452  3.485E-5 8.27751 3245 450.00
436.64 1.000576 2.048588E-2 0.652577  3.484E-5 8.27736 3275 450.00
436.64 1.000576 2.049861E-2 0.652333  3.468E-5 8.27675 3304 450.00
436.65 1.000576 2.023380E-2 0.652732  3.478E-5 8.27800 3334 450.00
436.65 1.000576 2.044058E-2 0.652398  3.482E-5 8.27677 3364 450.00
436.66 1.000576 2.027376E-2 0.652648  3.476E-5 8.27668 3394 449.95
436.66 1.000576 2.036954E-2 0.652098  3.485E-5 8.27649 3424 450.00
436.68 1.000576 2.033268E-2 0.652415  3.482E-5 8.27705 3453 450.00
436.68 1.000576 2.027437E-2 0.652419  3.482E-5 8.27737 3483 450.00
436.68 1.000576 2.033341E-2 0.652369  3.471E-5 8.27843 3513 450.00
436.65 1.000576 2.016496E-2 0.652484  3.468E-5 8.27622 3543 450.00
436.70 1.000576 2.037268E-2 0.652475  3.469E-5 8.27674 3573 450.00
436.70 1.000576 2.035653E-2 0.652477  3.478E-5 8.27664 3602 450.00
436.71 1.000576 2.006321E-2 0.652599  3.482E-5 8.27550 3632 450.00
436.72 1.000576 2.029300E-2 0.652404  3.481E-5 8.27645 3662 450.00
436.72 1.000576 2.023654E-2 0.652281  3.473E-5 8.27633 3692 450.00
436.72 1.000576 2.030297E-2 0.652647  3.467E-5 8.27600 3722 450.00
436.72 1.000576 2.018988E-2 0.652438  3.469E-5 8.27686 3751 450.00
436.73 1.000576 2.012637E-2 0.652459  3.474E-5 8.27585 3781 450.00
436.73 1.000576 2.048000E-2 0.652451  3.473E-5 8.27681 3811 450.00
436.74 1.000576 2.041883E-2 0.652415  3.477E-5 8.27508 3841 450.00
436.74 1.000576 2.006151E-2 0.652719  3.472E-5 8.27621 3871 450.00
436.74 1.000576 2.033193E-2 0.652503  3.478E-5 8.27679 3900 450.00
436.74 1.000576 2.050850E-2 0.652339  3.464E-5 8.27557 3930 450.00
436.75 1.000576 2.031852E-2 0.652354  3.473E-5 8.27635 3960 450.00
436.75 1.000576 2.049458E-2 0.652401  3.479E-5 8.27613 3990 450.00
436.76 1.000576 2.021277E-2 0.652479  3.473E-5 8.27639 4020 450.00
436.76 1.000576 2.007792E-2 0.652182  3.472E-5 8.27480 4049 450.00
436.79 1.000576 2.044136E-2 0.652329  3.476E-5 8.27478 4079 450.00
436.80 1.000576 2.042092E-2 0.652367  3.478E-5 8.27544 4109 450.00
436.81 1.000576 2.052436E-2 0.652279  3.471E-5 8.27674 4139 450.00
436.82 1.000576 2.015896E-2 0.652492  3.489E-5 8.27488 4169 450.00
436.77 1.000576 2.031850E-2 0.652308  3.478E-5 8.27552 4198 450.00
436.84 1.000576 2.042545E-2 0.652540  3.486E-5 8.27499 4228 450.00
436.80 1.000576 1.999314E-2 0.652167  3.460E-5 8.27512 4258 450.00
436.83 1.000576 2.028248E-2 0.652295  3.477E-5 8.27508 4288 450.00
436.77 1.000576 2.041302E-2 0.652331  3.467E-5 8.27591 4318 450.00
436.80 1.000576 2.007868E-2 0.652165  3.476E-5 8.27650 4347 450.00
436.77 1.000576 2.021284E-2 0.652388  3.489E-5 8.27636 4377 450.00
436.78 1.000576 2.033810E-2 0.652304  3.484E-5 8.27500 4407 450.00
436.77 1.000576 2.012012E-2 0.652326  3.476E-5 8.27545 4437 450.00
436.78 1.000576 1.997989E-2 0.652289  3.495E-5 8.27555 4467 450.00
436.78 1.000576 2.053031E-2 0.652407  3.486E-5 8.27573 4496 450.00
436.80 1.000576 2.066111E-2 0.652137  3.476E-5 8.27556 4526 450.00
436.80 1.000576 2.045320E-2 0.652317  3.478E-5 8.27605 4556 450.00
436.79 1.000576 2.025961E-2 0.652169  3.482E-5 8.27506 4586 450.00
436.79 1.000576 2.038722E-2 0.652280  3.477E-5 8.27561 4616 450.00
436.80 1.000576 2.028816E-2 0.652392  3.481E-5 8.27566 4645 450.00
436.79 1.000576 2.063255E-2 0.652376  3.478E-5 8.27520 4675 450.00
436.80 1.000576 2.033992E-2 0.652378  3.470E-5 8.27530 4705 450.00
436.80 1.000576 2.050240E-2 0.652403  3.478E-5 8.27496 4735 450.00
436.80 1.000576 2.032653E-2 0.652206  3.489E-5 8.27538 4765 450.00
436.80 1.000576 2.049983E-2 0.652395  3.483E-5 8.27548 4794 450.10
436.80 1.000576 2.017897E-2 0.652322  3.468E-5 8.27577 4824 450.00
436.78 1.000576 2.042923E-2 0.652098  3.477E-5 8.27546 4854 450.00
436.77 1.000576 2.043382E-2 0.652256  3.486E-5 8.27472 4884 450.00
436.77 1.000576 2.050394E-2 0.652057  3.473E-5 8.27477 4914 450.00
436.75 1.000576 2.067661E-2 0.652257  3.491E-5 8.27656 4943 450.00
436.75 1.000576 2.026348E-2 0.652423  3.481E-5 8.27484 4973 450.00
436.74 1.000576 1.971348E-2 0.652883  3.469E-5 8.27367 5003 450.00
436.73 1.000576 2.044030E-2 0.652214  3.494E-5 8.27603 5033 450.00
436.72 1.000576 1.992958E-2 0.652072  3.480E-5 8.27548 5063 450.00
436.71 1.000576 1.994668E-2 0.652149  3.471E-5 8.27545 5092 450.00
436.71 1.000576 2.055632E-2 0.652176  3.475E-5 8.27633 5122 450.00
436.70 1.000576 2.031644E-2 0.652141  3.467E-5 8.27502 5152 450.00
436.69 1.000576 2.051688E-2 0.652228  3.479E-5 8.27516 5182 450.00
436.69 1.000576 2.052062E-2 0.652358  3.476E-5 8.27553 5212 450.00
436.68 1.000576 2.012164E-2 0.652017  3.488E-5 8.27481 5241 449.95
436.66 1.000576 2.031628E-2 0.652382  3.472E-5 8.27494 5271 450.00
436.65 1.000576 2.034632E-2 0.652333  3.466E-5 8.27463 5301 450.00
436.64 1.000576 2.056695E-2 0.652085  3.475E-5 8.27593 5331 450.00
436.64 1.000576 2.003415E-2 0.652327  3.481E-5 8.27576 5361 450.00
436.62 1.000576 2.026181E-2 0.652171  3.471E-5 8.27472 5390 450.00
436.62 1.000576 2.059686E-2 0.652480  3.486E-5 8.27426 5420 450.00
436.62 1.000576 2.024999E-2 0.652161  3.483E-5 8.27448 5450 450.05
436.61 1.000576 2.031794E-2 0.652394  3.476E-5 8.27540 5480 450.05
436.60 1.000576 2.048701E-2 0.652868  3.475E-5 8.27459 5510 450.00
436.59 1.000576 2.026062E-2 0.652444  3.483E-5 8.27390 5539 450.05
436.55 1.000576 2.013982E-2 0.652532  3.498E-5 8.27554 5569 450.10
436.54 1.000576 2.051357E-2 0.652530  3.489E-5 8.27435 5599 450.00
436.54 1.000576 2.007833E-2 0.652485  3.482E-5 8.27412 5629 450.00
436.52 1.000576 2.036865E-2 0.652364  3.467E-5 8.27366 5659 450.00
436.51 1.000576 2.055376E-2 0.652440  3.476E-5 8.27386 5688 450.00
436.49 1.000576 1.996164E-2 0.652481  3.472E-5 8.27434 5718 450.00
436.46 1.000576 2.046542E-2 0.652419  3.480E-5 8.27481 5748 450.00
436.44 1.000576 2.038368E-2 0.652597  3.472E-5 8.27394 5778 450.00
436.42 1.000576 1.995420E-2 0.652402  3.464E-5 8.27515 5808 449.95
436.41 1.000576 2.090187E-2 0.652598  3.479E-5 8.27597 5837 450.00
436.39 1.000576 2.043849E-2 0.652689  3.485E-5 8.27505 5867 449.90
436.38 1.000576 2.013955E-2 0.652751  3.490E-5 8.27491 5897 449.95
436.37 1.000576 2.039023E-2 0.652569  3.460E-5 8.27425 5927 449.90
436.36 1.000576 1.994042E-2 0.652791  3.476E-5 8.27428 5957 449.95
436.35 1.000576 1.994824E-2 0.652711  3.478E-5 8.27605 5986 450.00
436.34 1.000576 2.084613E-2 0.652779  3.476E-5 8.27488 6016 449.95
436.34 1.000576 2.020347E-2 0.652421  3.482E-5 8.27520 6046 450.00
436.33 1.000576 2.020290E-2 0.652703  3.478E-5 8.27414 6076 450.00
436.33 1.000576 2.035384E-2 0.652823  3.472E-5 8.27527 6106 450.00
436.33 1.000576 2.017679E-2 0.652655  3.473E-5 8.27490 6135 450.00
436.33 1.000576 1.977786E-2 0.652366  3.465E-5 8.27471 6165 450.00
436.33 1.000576 2.042342E-2 0.652529  3.480E-5 8.27503 6195 450.00
436.33 1.000576 2.077031E-2 0.652581  3.488E-5 8.27485 6225 450.00
436.33 1.000576 2.043048E-2 0.652373  3.482E-5 8.27524 6255 450.00
436.33 1.000576 2.025477E-2 0.652688  3.474E-5 8.27512 6284 450.00
436.33 1.000576 1.981959E-2 0.652704  3.495E-5 8.27506 6314 450.00
436.33 1.000576 2.045969E-2 0.652581  3.475E-5 8.27394 6344 450.00
436.34 1.000576 1.986061E-2 0.652847  3.483E-5 8.27624 6374 450.00
436.34 1.000576 2.025228E-2 0.652565  3.471E-5 8.27555 6404 450.00
436.35 1.000576 2.008673E-2 0.652562  3.485E-5 8.27552 6433 450.00
436.35 1.000576 2.024627E-2 0.652818  3.458E-5 8.27501 6463 450.00
436.35 1.000576 2.007691E-2 0.652839  3.484E-5 8.27497 6493 450.00
436.36 1.000576 2.054163E-2 0.652681  3.464E-5 8.27446 6523 450.00
436.37 1.000576 2.029200E-2 0.652723  3.473E-5 8.27574 6553 450.00
436.37 1.000576 2.025995E-2 0.652545  3.469E-5 8.27515 6582 450.00
436.38 1.000576 2.005839E-2 0.652714  3.488E-5 8.27528 6612 450.00
436.36 1.000576 2.054807E-2 0.652859  3.480E-5 8.27496 6642 450.00
436.36 1.000576 2.036550E-2 0.652770  3.466E-5 8.27480 6672 450.05
436.37 1.000576 2.032692E-2 0.652475  3.480E-5 8.27502 6702 450.10
436.36 1.000576 2.020259E-2 0.652656  3.485E-5 8.27640 6731 450.05
436.36 1.000576 2.048886E-2 0.652832  3.483E-5 8.27503 6761 450.00
436.36 1.000576 2.092108E-2 0.652983  3.469E-5 8.27366 6791 450.00
436.34 1.000576 2.029839E-2 0.652445  3.471E-5 8.27420 6821 450.00
436.33 1.000576 2.029404E-2 0.652735  3.469E-5 8.27439 6851 450.00
436.31 1.000576 2.017611E-2 0.652693  3.481E-5 8.27490 6880 450.00
436.30 1.000576 2.030161E-2 0.652569  3.484E-5 8.27488 6910 450.00
436.29 1.000576 2.041615E-2 0.652811  3.464E-5 8.27417 6940 450.00
436.28 1.000576 2.037278E-2 0.652798  3.469E-5 8.27513 6970 449.95
436.26 1.000576 2.022029E-2 0.652696  3.471E-5 8.27445 7000 450.00
436.25 1.000576 2.036892E-2 0.652929  3.477E-5 8.27514 7029 449.95
436.24 1.000576 2.020602E-2 0.652757  3.466E-5 8.27395 7059 450.00
436.24 1.000576 2.022709E-2 0.652877  3.483E-5 8.27549 7089 449.90
436.24 1.000576 2.037610E-2 0.652788  3.478E-5 8.27532 7119 449.95
436.23 1.000576 2.016185E-2 0.652695  3.478E-5 8.27534 7149 449.95
436.24 1.000576 2.008597E-2 0.652820  3.486E-5 8.27454 7178 450.00
436.24 1.000576 1.997463E-2 0.652672  3.462E-5 8.27361 7208 450.00
436.24 1.000576 2.020871E-2 0.652788  3.477E-5 8.27518 7238 449.95
436.24 1.000576 2.008798E-2 0.652920  3.469E-5 8.27539 7268 450.00
436.24 1.000576 2.039188E-2 0.652820  3.487E-5 8.27551 7298 450.00
436.24 1.000576 2.017341E-2 0.652924  3.461E-5 8.27485 7327 450.00
436.24 1.000576 2.030370E-2 0.652932  3.482E-5 8.27566 7357 450.05
436.24 1.000576 1.981553E-2 0.652954  3.476E-5 8.27556 7387 450.05
436.24 1.000576 2.019918E-2 0.652814  3.480E-5 8.27459 7417 450.00
436.23 1.000576 2.087780E-2 0.652787  3.474E-5 8.27487 7447 450.00
436.23 1.000576 2.033563E-2 0.653111  3.481E-5 8.27383 7476 450.00
436.23 1.000576 1.999904E-2 0.652743  3.477E-5 8.27435 7506 450.00
