Nb
as received
Sample dimentions in mm: 0.7000 x 0.000 x 14.18
Photocell sensitivity 0.056 V/mm, Optic arm 328 mm
User: Iva
C 23 450 2.0 290 999 1.000  20 1.0E-1
24.11.2013, 06:51

T[K]   F[Hz]  Theta[rad]   Modulus  MaxStrain Center[mm] Time[s] TOven[K]
436.22 1.000576 2.015706E-2 0.652888  3.474E-5 8.27544 26 449.90
436.22 1.000576 2.026663E-2 0.652985  3.466E-5 8.27544 56 449.65
436.22 1.000576 2.054908E-2 0.653042  3.468E-5 8.27496 86 449.15
436.20 1.000576 2.060329E-2 0.652831  3.472E-5 8.27554 116 448.50
436.17 1.000576 2.047509E-2 0.652829  3.470E-5 8.27425 146 447.80
436.13 1.000576 2.043811E-2 0.653073  3.457E-5 8.27481 175 446.95
436.04 1.000576 2.025496E-2 0.653368  3.471E-5 8.27516 205 446.05
435.94 1.000576 2.087951E-2 0.653135  3.469E-5 8.27401 235 445.10
435.82 1.000576 2.048973E-2 0.653140  3.474E-5 8.27537 265 444.15
435.67 1.000576 2.049046E-2 0.653127  3.468E-5 8.27445 295 443.15
435.49 1.000576 2.053615E-2 0.653168  3.461E-5 8.27406 324 442.25
435.28 1.000576 2.033667E-2 0.653413  3.472E-5 8.27376 354 441.25
435.04 1.000576 2.075507E-2 0.653731  3.476E-5 8.27529 384 440.25
434.78 1.000576 2.080661E-2 0.653858  3.467E-5 8.27474 414 439.25
434.49 1.000576 2.072215E-2 0.654036  3.462E-5 8.27526 444 438.25
434.18 1.000576 1.988416E-2 0.654574  3.452E-5 8.27495 473 437.20
433.85 1.000576 2.040341E-2 0.654242  3.465E-5 8.27532 503 436.10
433.50 1.000576 2.013714E-2 0.654806  3.472E-5 8.27576 533 435.05
433.12 1.000576 2.016253E-2 0.655032  3.459E-5 8.27582 563 434.00
432.72 1.000576 2.028516E-2 0.655229  3.460E-5 8.27503 593 432.95
432.29 1.000576 2.007835E-2 0.655564  3.453E-5 8.27559 622 431.85
431.85 1.000576 2.045785E-2 0.655880  3.464E-5 8.27586 652 430.55
431.39 1.000576 2.001950E-2 0.656231  3.447E-5 8.27477 682 429.70
430.92 1.000576 2.034911E-2 0.656269  3.456E-5 8.27675 712 428.80
430.42 1.000576 1.989909E-2 0.656737  3.445E-5 8.27567 742 427.95
429.92 1.000576 1.981897E-2 0.657110  3.461E-5 8.27474 771 426.95
429.40 1.000576 1.970076E-2 0.657390  3.443E-5 8.27632 801 426.00
428.87 1.000576 2.019076E-2 0.657869  3.442E-5 8.27622 831 425.05
428.32 1.000576 1.991009E-2 0.658290  3.443E-5 8.27562 861 424.15
427.76 1.000576 1.962850E-2 0.658593  3.445E-5 8.27473 891 423.15
427.19 1.000576 1.918753E-2 0.659111  3.434E-5 8.27559 920 422.25
426.61 1.000576 1.917578E-2 0.659176  3.438E-5 8.27563 950 421.20
426.02 1.000576 1.879701E-2 0.659715  3.438E-5 8.27507 980 420.15
425.41 1.000576 1.856891E-2 0.659988  3.434E-5 8.27563 1010 419.15
424.80 1.000576 1.870579E-2 0.660578  3.433E-5 8.27552 1040 418.15
424.17 1.000576 1.842341E-2 0.660910  3.445E-5 8.27510 1069 417.10
423.54 1.000576 1.820220E-2 0.661222  3.421E-5 8.27388 1099 416.10
422.91 1.000576 1.782571E-2 0.661551  3.430E-5 8.27503 1129 415.15
422.25 1.000576 1.758505E-2 0.662033  3.421E-5 8.27570 1159 414.10
421.59 1.000576 1.765459E-2 0.662507  3.424E-5 8.27355 1189 413.10
420.92 1.000576 1.733665E-2 0.662930  3.416E-5 8.27488 1218 412.10
420.24 1.000576 1.733368E-2 0.663209  3.423E-5 8.27477 1248 411.10
419.56 1.000576 1.662671E-2 0.663656  3.411E-5 8.27483 1278 410.05
418.86 1.000576 1.652806E-2 0.664116  3.422E-5 8.27452 1308 409.00
418.18 1.000576 1.641876E-2 0.664281  3.405E-5 8.27466 1338 408.05
417.48 1.000576 1.584531E-2 0.664799  3.410E-5 8.27514 1367 406.95
416.78 1.000576 1.585476E-2 0.665213  3.412E-5 8.27388 1397 405.95
416.07 1.000576 1.536543E-2 0.665658  3.404E-5 8.27420 1427 404.95
415.36 1.000576 1.480022E-2 0.665909  3.409E-5 8.27413 1457 403.95
414.63 1.000576 1.441543E-2 0.666357  3.407E-5 8.27405 1487 402.95
413.91 1.000576 1.424093E-2 0.666668  3.399E-5 8.27281 1516 402.05
413.19 1.000576 1.353923E-2 0.666944  3.400E-5 8.27320 1546 401.05
412.46 1.000576 1.361596E-2 0.667422  3.407E-5 8.27324 1576 400.05
411.72 1.000576 1.344582E-2 0.667475  3.380E-5 8.27323 1606 399.15
410.99 1.000576 1.299965E-2 0.668069  3.402E-5 8.27275 1636 398.15
410.26 1.000576 1.254844E-2 0.668462  3.394E-5 8.27241 1665 397.25
409.53 1.000576 1.246374E-2 0.668947  3.387E-5 8.27162 1695 396.25
408.79 1.000576 1.252968E-2 0.668927  3.389E-5 8.27222 1725 395.25
408.05 1.000576 1.208872E-2 0.669173  3.386E-5 8.27032 1755 394.35
407.31 1.000576 1.166494E-2 0.669688  3.383E-5 8.27037 1785 393.35
406.56 1.000576 1.170050E-2 0.669947  3.382E-5 8.26981 1814 392.35
405.82 1.000576 1.062520E-2 0.670107  3.381E-5 8.26973 1844 391.35
405.07 1.000576 1.071787E-2 0.670783  3.376E-5 8.26935 1874 390.35
404.33 1.000576 1.080209E-2 0.670801  3.389E-5 8.26788 1904 389.35
403.57 1.000576 1.027068E-2 0.671055  3.379E-5 8.26884 1934 388.35
402.83 1.000576 9.994034E-3 0.671549  3.373E-5 8.26797 1963 387.45
402.07 1.000576 9.501772E-3 0.671812  3.365E-5 8.26779 1993 386.45
401.33 1.000576 9.620944E-3 0.671985  3.371E-5 8.26711 2023 385.45
400.58 1.000576 9.339718E-3 0.672190  3.364E-5 8.26672 2053 384.45
399.82 1.000576 9.003835E-3 0.672659  3.363E-5 8.26643 2083 383.45
399.07 1.000576 9.048015E-3 0.672722  3.361E-5 8.26567 2112 382.45
398.32 1.000576 8.409363E-3 0.672879  3.361E-5 8.26409 2142 381.45
397.56 1.000576 8.165298E-3 0.673182  3.368E-5 8.26470 2172 380.45
396.81 1.000576 8.179541E-3 0.673132  3.374E-5 8.26315 2202 379.45
396.06 1.000576 7.806952E-3 0.673684  3.369E-5 8.26306 2232 378.55
395.31 1.000576 8.156380E-3 0.674075  3.368E-5 8.26342 2261 377.60
394.56 1.000576 7.710785E-3 0.674157  3.359E-5 8.26263 2291 376.70
393.81 1.000576 7.372949E-3 0.674376  3.367E-5 8.26151 2321 375.85
393.07 1.000576 7.395346E-3 0.674618  3.367E-5 8.26109 2351 375.00
392.32 1.000576 7.272477E-3 0.674830  3.351E-5 8.26070 2381 374.15
391.56 1.000576 7.154519E-3 0.674838  3.358E-5 8.25894 2410 373.30
390.81 1.000576 6.259549E-3 0.675488  3.350E-5 8.25913 2440 372.50
390.07 1.000576 6.641946E-3 0.675299  3.353E-5 8.25857 2470 371.75
389.33 1.000576 6.894360E-3 0.675735  3.355E-5 8.25830 2500 371.00
388.59 1.000576 6.679170E-3 0.675733  3.350E-5 8.25604 2530 370.25
387.85 1.000576 6.408990E-3 0.675858  3.352E-5 8.25676 2559 369.55
387.12 1.000576 6.344477E-3 0.676031  3.355E-5 8.25553 2589 368.85
386.39 1.000576 6.351554E-3 0.676171  3.344E-5 8.25406 2619 368.15
385.68 1.000576 6.187979E-3 0.676521  3.351E-5 8.25434 2649 367.45
384.97 1.000576 5.770249E-3 0.676631  3.345E-5 8.25312 2679 366.75
384.27 1.000576 5.736221E-3 0.676989  3.344E-5 8.25270 2708 366.05
383.56 1.000576 5.759782E-3 0.677354  3.348E-5 8.25125 2738 365.35
382.86 1.000576 5.404461E-3 0.677049  3.344E-5 8.25159 2768 364.65
382.16 1.000576 5.611676E-3 0.677196  3.339E-5 8.25106 2798 363.95
381.47 1.000576 5.604262E-3 0.677607  3.358E-5 8.25027 2828 363.25
380.79 1.000576 5.368029E-3 0.677529  3.350E-5 8.24949 2857 362.60
380.10 1.000576 5.509117E-3 0.677746  3.343E-5 8.24923 2887 362.00
379.42 1.000576 5.167455E-3 0.678303  3.356E-5 8.24796 2917 361.40
378.76 1.000576 5.832279E-3 0.678537  3.341E-5 8.24673 2947 360.75
378.08 1.000576 5.490092E-3 0.678161  3.337E-5 8.24658 2977 360.10
377.41 1.000576 5.250096E-3 0.678467  3.343E-5 8.24552 3006 359.60
376.76 1.000576 4.903695E-3 0.678492  3.334E-5 8.24553 3036 358.95
376.11 1.000576 4.827803E-3 0.678792  3.335E-5 8.24361 3066 358.40
375.48 1.000576 5.119387E-3 0.678859  3.348E-5 8.24363 3096 357.80
374.85 1.000576 4.889341E-3 0.678752  3.335E-5 8.24251 3126 357.20
374.20 1.000576 4.842938E-3 0.679201  3.343E-5 8.24178 3155 356.70
373.56 1.000576 4.668658E-3 0.679103  3.337E-5 8.24063 3185 356.10
372.95 1.000576 4.835273E-3 0.679244  3.332E-5 8.24053 3215 355.65
372.38 1.000576 5.222526E-3 0.679448  3.334E-5 8.24037 3245 355.15
371.76 1.000576 4.758714E-3 0.679506  3.344E-5 8.23891 3275 354.65
371.16 1.000576 4.808842E-3 0.679130  3.339E-5 8.23771 3304 354.20
370.56 1.000576 4.758212E-3 0.679853  3.334E-5 8.23664 3334 353.75
369.97 1.000576 4.650922E-3 0.679924  3.328E-5 8.23679 3364 353.25
369.38 1.000576 4.417064E-3 0.679999  3.328E-5 8.23651 3394 352.75
368.79 1.000576 4.866115E-3 0.680274  3.331E-5 8.23553 3424 352.30
368.22 1.000576 4.374082E-3 0.680098  3.320E-5 8.23404 3453 351.85
367.65 1.000576 4.477224E-3 0.680283  3.331E-5 8.23347 3483 351.35
367.09 1.000576 4.311183E-3 0.680579  3.337E-5 8.23375 3513 350.85
366.54 1.000576 4.468656E-3 0.680644  3.317E-5 8.23345 3543 350.45
365.99 1.000576 4.387091E-3 0.680727  3.339E-5 8.23139 3573 350.05
365.44 1.000576 4.244802E-3 0.680813  3.324E-5 8.23122 3602 349.65
364.90 1.000576 4.389733E-3 0.680894  3.328E-5 8.23022 3632 349.25
364.37 1.000576 4.273161E-3 0.680815  3.325E-5 8.22941 3662 348.85
363.80 1.000576 4.376780E-3 0.681187  3.331E-5 8.22950 3692 348.40
363.31 1.000576 4.545696E-3 0.681343  3.320E-5 8.22841 3722 348.00
362.79 1.000576 3.801494E-3 0.681311  3.326E-5 8.22810 3751 347.60
362.27 1.000576 4.297902E-3 0.681703  3.317E-5 8.22783 3781 347.25
361.77 1.000576 4.215117E-3 0.681618  3.331E-5 8.22694 3811 346.80
361.27 1.000576 4.237878E-3 0.681712  3.320E-5 8.22588 3841 346.35
360.77 1.000576 4.665150E-3 0.681722  3.323E-5 8.22531 3871 345.95
360.28 1.000576 4.386721E-3 0.681896  3.321E-5 8.22415 3900 345.50
359.75 1.000576 3.957866E-3 0.681789  3.330E-5 8.22232 3930 345.10
359.29 1.000576 4.017960E-3 0.682068  3.335E-5 8.22271 3960 344.70
358.81 1.000576 4.577209E-3 0.681885  3.326E-5 8.22336 3990 344.35
358.34 1.000576 4.215819E-3 0.682433  3.309E-5 8.22237 4020 343.95
357.87 1.000576 4.123560E-3 0.682413  3.311E-5 8.22159 4049 343.55
357.40 1.000576 4.145183E-3 0.682477  3.328E-5 8.22037 4079 343.15
356.94 1.000576 4.297616E-3 0.682767  3.314E-5 8.22119 4109 342.75
356.49 1.000576 4.159417E-3 0.682545  3.319E-5 8.22050 4139 342.40
356.03 1.000576 4.426385E-3 0.682811  3.315E-5 8.21962 4169 342.05
355.55 1.000576 4.210309E-3 0.683019  3.325E-5 8.21780 4198 341.65
355.14 1.000576 4.228771E-3 0.682903  3.317E-5 8.21782 4228 341.35
354.70 1.000576 4.188204E-3 0.683170  3.315E-5 8.21773 4258 341.00
354.26 1.000576 3.607680E-3 0.683151  3.321E-5 8.21606 4288 340.65
353.82 1.000576 4.178835E-3 0.683312  3.313E-5 8.21537 4318 340.25
353.39 1.000576 4.397526E-3 0.683287  3.317E-5 8.21501 4347 339.95
352.98 1.000576 3.977275E-3 0.683498  3.313E-5 8.21432 4377 339.60
352.55 1.000576 4.139995E-3 0.683723  3.312E-5 8.21447 4407 339.25
352.13 1.000576 4.507324E-3 0.683715  3.313E-5 8.21333 4437 338.90
351.71 1.000576 3.918491E-3 0.683704  3.304E-5 8.21293 4467 338.55
351.30 1.000576 4.187637E-3 0.683886  3.311E-5 8.21271 4496 338.20
350.90 1.000576 4.462732E-3 0.684105  3.322E-5 8.21103 4526 337.85
350.50 1.000576 4.037248E-3 0.684213  3.310E-5 8.21080 4556 337.55
350.10 1.000576 3.799476E-3 0.684064  3.317E-5 8.21129 4586 337.25
349.71 1.000576 4.036808E-3 0.684175  3.320E-5 8.20944 4616 336.90
349.33 1.000576 4.176727E-3 0.684426  3.327E-5 8.20994 4645 336.60
348.95 1.000576 4.255259E-3 0.684380  3.308E-5 8.20817 4675 336.30
348.57 1.000576 4.165780E-3 0.684508  3.312E-5 8.20852 4705 336.00
348.19 1.000576 4.118099E-3 0.684616  3.317E-5 8.20820 4735 335.65
347.81 1.000576 4.214033E-3 0.684487  3.311E-5 8.20727 4765 335.35
347.44 1.000576 4.242511E-3 0.684655  3.315E-5 8.20650 4794 335.00
347.07 1.000576 4.198939E-3 0.684670  3.309E-5 8.20644 4824 334.70
346.71 1.000576 4.001242E-3 0.684846  3.312E-5 8.20446 4854 334.40
346.35 1.000576 3.657697E-3 0.684982  3.305E-5 8.20570 4884 334.15
345.99 1.000576 4.179678E-3 0.685003  3.316E-5 8.20477 4914 333.85
345.63 1.000576 3.852168E-3 0.685083  3.316E-5 8.20479 4943 333.60
345.29 1.000576 3.775093E-3 0.685041  3.311E-5 8.20291 4973 333.30
344.93 1.000576 4.160483E-3 0.685186  3.310E-5 8.20383 5003 333.00
344.58 1.000576 3.680088E-3 0.685136  3.308E-5 8.20130 5033 332.70
344.24 1.000576 3.812075E-3 0.685361  3.304E-5 8.20203 5063 332.45
343.90 1.000576 4.185069E-3 0.685489  3.314E-5 8.20170 5092 332.20
343.57 1.000576 4.006753E-3 0.685421  3.309E-5 8.20240 5122 331.90
343.23 1.000576 4.041682E-3 0.685743  3.303E-5 8.20093 5152 331.60
342.90 1.000576 4.128311E-3 0.685601  3.310E-5 8.19992 5182 331.35
342.57 1.000576 4.089676E-3 0.685996  3.293E-5 8.20027 5212 331.10
342.22 1.000576 4.085100E-3 0.685843  3.308E-5 8.19902 5241 330.80
341.94 1.000576 3.496994E-3 0.685984  3.313E-5 8.19802 5271 330.60
341.57 1.000576 3.910953E-3 0.686193  3.308E-5 8.19880 5301 330.35
341.28 1.000576 3.822182E-3 0.685771  3.319E-5 8.19821 5331 330.10
340.96 1.000576 3.838211E-3 0.686530  3.304E-5 8.19701 5360 329.85
340.65 1.000576 3.711686E-3 0.686370  3.306E-5 8.19639 5390 329.60
340.35 1.000576 3.609798E-3 0.685977  3.306E-5 8.19589 5420 329.40
340.04 1.000576 3.988283E-3 0.686468  3.304E-5 8.19456 5450 329.15
339.73 1.000576 4.065916E-3 0.686405  3.305E-5 8.19518 5479 328.90
339.43 1.000576 4.041662E-3 0.686438  3.297E-5 8.19525 5509 328.65
339.14 1.000576 4.432195E-3 0.686317  3.303E-5 8.19493 5539 328.45
338.83 1.000576 4.143091E-3 0.686705  3.302E-5 8.19402 5569 328.25
338.54 1.000576 3.968082E-3 0.686838  3.305E-5 8.19390 5598 328.00
338.25 1.000576 3.844506E-3 0.686924  3.309E-5 8.19355 5628 327.80
337.97 1.000576 3.679943E-3 0.686869  3.304E-5 8.19286 5658 327.55
337.68 1.000576 3.752211E-3 0.687133  3.302E-5 8.19120 5687 327.35
337.40 1.000576 3.915164E-3 0.687122  3.296E-5 8.19221 5717 327.10
337.12 1.000576 4.036497E-3 0.687132  3.291E-5 8.19115 5747 326.95
336.85 1.000576 3.462858E-3 0.687328  3.303E-5 8.19100 5777 326.75
336.57 1.000576 3.874482E-3 0.687401  3.299E-5 8.19000 5806 326.50
336.29 1.000576 3.563442E-3 0.687123  3.299E-5 8.19094 5836 326.30
336.01 1.000576 3.910532E-3 0.687420  3.305E-5 8.18906 5866 326.10
335.74 1.000576 3.740588E-3 0.687260  3.307E-5 8.18927 5895 325.90
335.47 1.000576 3.954892E-3 0.687723  3.291E-5 8.18848 5925 325.70
335.20 1.000576 4.033592E-3 0.687626  3.301E-5 8.18815 5955 325.45
334.93 1.000576 4.219168E-3 0.688026  3.288E-5 8.18810 5984 325.25
334.67 1.000576 3.561463E-3 0.687986  3.299E-5 8.18680 6014 325.05
334.42 1.000576 4.073776E-3 0.687922  3.306E-5 8.18592 6044 324.85
334.16 1.000576 4.086049E-3 0.687874  3.315E-5 8.18540 6074 324.65
333.90 1.000576 3.665155E-3 0.687945  3.301E-5 8.18528 6103 324.50
333.65 1.000576 3.874979E-3 0.688217  3.304E-5 8.18506 6133 324.30
333.40 1.000576 3.606176E-3 0.688310  3.293E-5 8.18468 6163 324.10
333.14 1.000576 3.755529E-3 0.687966  3.293E-5 8.18545 6192 323.95
332.91 1.000576 3.896441E-3 0.688305  3.288E-5 8.18434 6222 323.70
332.66 1.000576 3.960029E-3 0.688187  3.295E-5 8.18469 6252 323.55
332.43 1.000576 3.773162E-3 0.688310  3.296E-5 8.18292 6281 323.35
332.18 1.000576 4.401182E-3 0.688551  3.298E-5 8.18384 6311 323.20
331.94 1.000576 4.206470E-3 0.688395  3.297E-5 8.18181 6341 323.05
331.70 1.000576 3.959745E-3 0.688628  3.291E-5 8.18237 6371 322.85
331.46 1.000576 3.718126E-3 0.688706  3.281E-5 8.18203 6400 322.65
331.23 1.000576 3.901104E-3 0.688466  3.285E-5 8.18132 6430 322.50
331.01 1.000576 3.891203E-3 0.688555  3.288E-5 8.17998 6460 322.35
330.78 1.000576 3.784107E-3 0.688886  3.295E-5 8.18091 6489 322.20
330.56 1.000576 3.850351E-3 0.688817  3.299E-5 8.18155 6519 322.05
330.33 1.000576 3.996493E-3 0.688785  3.299E-5 8.18017 6549 321.85
330.12 1.000576 3.941507E-3 0.688798  3.289E-5 8.18008 6578 321.70
329.89 1.000576 3.723214E-3 0.688933  3.291E-5 8.18010 6608 321.55
329.67 1.000576 3.742584E-3 0.688928  3.292E-5 8.17993 6638 321.35
329.45 1.000576 3.848180E-3 0.688963  3.285E-5 8.17781 6668 321.20
329.24 1.000576 3.584460E-3 0.689164  3.294E-5 8.17900 6697 321.05
329.03 1.000576 3.791214E-3 0.688865  3.298E-5 8.17810 6727 320.90
328.81 1.000576 3.860524E-3 0.688994  3.290E-5 8.17811 6757 320.75
328.60 1.000576 3.758258E-3 0.689178  3.303E-5 8.17632 6786 320.55
328.40 1.000576 4.062865E-3 0.689238  3.278E-5 8.17657 6816 320.40
328.19 1.000576 3.557091E-3 0.688735  3.294E-5 8.17703 6846 320.25
327.98 1.000576 3.739975E-3 0.689566  3.280E-5 8.17647 6875 320.15
327.77 1.000576 3.657192E-3 0.689332  3.293E-5 8.17505 6905 319.95
327.56 1.000576 4.040216E-3 0.689272  3.283E-5 8.17614 6935 319.80
327.36 1.000576 3.907989E-3 0.689487  3.299E-5 8.17368 6965 319.65
327.17 1.000576 4.146374E-3 0.689534  3.286E-5 8.17358 6994 319.55
326.96 1.000576 3.353583E-3 0.689640  3.282E-5 8.17284 7024 319.35
326.77 1.000576 3.736092E-3 0.689471  3.298E-5 8.17433 7054 319.25
326.57 1.000576 3.700719E-3 0.689919  3.299E-5 8.17259 7083 319.05
326.37 1.000576 3.452992E-3 0.689612  3.292E-5 8.17320 7113 318.95
326.18 1.000576 4.177380E-3 0.689996  3.288E-5 8.17283 7143 318.80
325.99 1.000576 3.928302E-3 0.689716  3.280E-5 8.17354 7172 318.65
325.79 1.000576 4.142303E-3 0.689626  3.305E-5 8.17135 7202 318.55
325.60 1.000576 3.663376E-3 0.689765  3.288E-5 8.17057 7232 318.35
325.42 1.000576 3.898554E-3 0.689828  3.288E-5 8.17177 7262 318.25
325.24 1.000576 3.869377E-3 0.689909  3.303E-5 8.17143 7291 318.05
325.05 1.000576 3.929979E-3 0.689729  3.276E-5 8.17061 7321 317.95
324.87 1.000576 3.549246E-3 0.689850  3.295E-5 8.16991 7351 317.85
324.69 1.000576 4.295541E-3 0.689793  3.277E-5 8.16978 7380 317.70
324.51 1.000576 3.740863E-3 0.690046  3.273E-5 8.16906 7410 317.55
324.34 1.000576 3.994349E-3 0.690135  3.292E-5 8.16987 7440 317.45
324.12 1.000576 3.916333E-3 0.690112  3.283E-5 8.16856 7469 317.30
323.95 1.000576 4.108127E-3 0.690188  3.290E-5 8.16887 7499 317.15
323.78 1.000576 3.893561E-3 0.690000  3.287E-5 8.16828 7529 317.05
323.61 1.000576 3.723073E-3 0.690421  3.290E-5 8.16719 7559 316.90
323.46 1.000576 4.022714E-3 0.690179  3.281E-5 8.16721 7588 316.75
323.30 1.000576 3.782857E-3 0.690147  3.280E-5 8.16749 7618 316.65
323.14 1.000576 4.104869E-3 0.690226  3.274E-5 8.16781 7648 316.50
322.98 1.000576 3.913389E-3 0.690354  3.279E-5 8.16670 7677 316.45
322.75 1.000576 3.736413E-3 0.690192  3.285E-5 8.16632 7707 316.25
322.64 1.000576 3.494214E-3 0.690531  3.276E-5 8.16583 7737 316.15
322.44 1.000576 3.676924E-3 0.690337  3.275E-5 8.16604 7766 316.05
322.31 1.000576 3.843433E-3 0.690388  3.282E-5 8.16561 7796 315.90
322.14 1.000576 3.769754E-3 0.690530  3.282E-5 8.16515 7826 315.75
321.98 1.000576 3.853523E-3 0.690587  3.284E-5 8.16560 7856 315.65
321.82 1.000576 4.061961E-3 0.690385  3.281E-5 8.16516 7885 315.55
321.66 1.000576 3.891305E-3 0.690652  3.292E-5 8.16569 7915 315.45
321.50 1.000576 4.093308E-3 0.690717  3.287E-5 8.16474 7945 315.35
321.34 1.000576 3.809530E-3 0.690689  3.285E-5 8.16259 7974 315.20
321.19 1.000576 3.816059E-3 0.690801  3.288E-5 8.16426 8004 315.05
321.04 1.000576 3.648993E-3 0.690967  3.294E-5 8.16300 8034 314.95
320.86 1.000576 3.935563E-3 0.690436  3.286E-5 8.16231 8063 314.85
320.74 1.000576 3.838042E-3 0.690372  3.289E-5 8.16080 8093 314.75
320.59 1.000576 3.777957E-3 0.691039  3.293E-5 8.16143 8123 314.65
320.41 1.000576 3.870054E-3 0.690857  3.289E-5 8.16220 8153 314.55
320.26 1.000576 3.675306E-3 0.691119  3.282E-5 8.16094 8182 314.40
320.11 1.000576 3.555832E-3 0.691091  3.271E-5 8.16076 8212 314.30
319.94 1.000576 3.898180E-3 0.691124  3.294E-5 8.16024 8242 314.15
319.86 1.000576 3.878612E-3 0.691043  3.282E-5 8.15961 8271 314.10
319.72 1.000576 3.717241E-3 0.691072  3.283E-5 8.16020 8301 313.95
319.57 1.000576 3.753032E-3 0.691163  3.287E-5 8.16012 8331 313.85
319.40 1.000576 3.841887E-3 0.691512  3.287E-5 8.15859 8360 313.75
319.26 1.000576 3.802688E-3 0.691444  3.291E-5 8.15948 8390 313.65
319.12 1.000576 4.073540E-3 0.691223  3.283E-5 8.15800 8420 313.55
318.98 1.000576 3.559772E-3 0.691268  3.277E-5 8.15986 8450 313.45
318.84 1.000576 4.073207E-3 0.691442  3.283E-5 8.15596 8479 313.35
318.68 1.000576 4.005695E-3 0.691202  3.271E-5 8.15870 8509 313.25
318.55 1.000576 3.842981E-3 0.691513  3.285E-5 8.15832 8539 313.15
318.41 1.000576 4.188466E-3 0.691631  3.268E-5 8.15779 8568 313.05
318.28 1.000576 3.816634E-3 0.691553  3.282E-5 8.15768 8598 312.95
318.15 1.000576 3.811898E-3 0.691440  3.288E-5 8.15658 8628 312.85
318.02 1.000576 3.622435E-3 0.691568  3.271E-5 8.15732 8657 312.80
317.89 1.000576 3.638251E-3 0.691493  3.288E-5 8.15675 8687 312.65
317.79 1.000576 3.760370E-3 0.691815  3.278E-5 8.15471 8717 312.55
317.62 1.000576 3.625856E-3 0.691850  3.278E-5 8.15670 8747 312.50
317.50 1.000576 3.665948E-3 0.691611  3.296E-5 8.15648 8776 312.45
317.40 1.000576 3.805585E-3 0.691567  3.281E-5 8.15589 8806 312.35
317.25 1.000576 3.879907E-3 0.691672  3.273E-5 8.15499 8836 312.25
317.13 1.000576 4.010462E-3 0.691746  3.271E-5 8.15482 8865 312.15
317.01 1.000576 3.627156E-3 0.691848  3.283E-5 8.15563 8895 312.05
316.89 1.000576 3.453094E-3 0.691911  3.271E-5 8.15590 8925 311.95
316.76 1.000576 4.073604E-3 0.692087  3.279E-5 8.15481 8954 311.85
316.63 1.000576 3.762101E-3 0.691852  3.270E-5 8.15454 8984 311.75
316.52 1.000576 3.677875E-3 0.691779  3.264E-5 8.15457 9014 311.70
316.40 1.000576 3.743306E-3 0.691917  3.268E-5 8.15428 9044 311.55
316.28 1.000576 3.663552E-3 0.692288  3.279E-5 8.15392 9073 311.50
316.16 1.000576 3.776955E-3 0.691972  3.275E-5 8.15381 9103 311.45
316.05 1.000576 3.870885E-3 0.691787  3.274E-5 8.15337 9133 311.35
315.92 1.000576 4.151240E-3 0.691887  3.272E-5 8.15211 9162 311.25
315.81 1.000576 4.120471E-3 0.692212  3.269E-5 8.15270 9192 311.15
315.70 1.000576 3.659406E-3 0.692143  3.286E-5 8.15182 9222 311.05
315.58 1.000576 3.271969E-3 0.692509  3.277E-5 8.15242 9251 311.00
315.46 1.000576 3.747365E-3 0.692371  3.282E-5 8.15142 9281 310.85
315.38 1.000576 3.663120E-3 0.692296  3.263E-5 8.15179 9311 310.75
315.24 1.000576 3.753640E-3 0.692366  3.289E-5 8.15044 9341 310.75
315.14 1.000576 3.752997E-3 0.692315  3.285E-5 8.15024 9370 310.65
315.04 1.000576 3.573388E-3 0.692304  3.271E-5 8.14960 9400 310.55
314.92 1.000576 4.223220E-3 0.692452  3.287E-5 8.15042 9430 310.50
314.81 1.000576 3.934303E-3 0.692369  3.282E-5 8.14887 9459 310.40
314.70 1.000576 3.640380E-3 0.692403  3.290E-5 8.15016 9489 310.30
314.59 1.000576 3.967425E-3 0.692550  3.267E-5 8.14963 9519 310.20
314.49 1.000576 3.885128E-3 0.692646  3.280E-5 8.14967 9548 310.15
314.38 1.000576 3.821723E-3 0.692501  3.277E-5 8.14856 9578 310.10
314.29 1.000576 3.754953E-3 0.692502  3.277E-5 8.14827 9608 310.05
314.17 1.000576 3.606991E-3 0.692531  3.274E-5 8.14900 9638 309.90
314.07 1.000576 3.578935E-3 0.692509  3.280E-5 8.14856 9667 309.85
313.98 1.000576 3.337796E-3 0.692589  3.269E-5 8.14802 9697 309.75
313.87 1.000576 3.822174E-3 0.692579  3.265E-5 8.14923 9727 309.75
313.77 1.000576 3.938297E-3 0.692811  3.277E-5 8.14785 9756 309.65
313.67 1.000576 3.920861E-3 0.692681  3.279E-5 8.14571 9786 309.55
313.57 1.000576 3.847364E-3 0.692610  3.271E-5 8.14707 9816 309.45
313.48 1.000576 3.449535E-3 0.692896  3.272E-5 8.14797 9845 309.40
313.38 1.000576 3.953437E-3 0.692641  3.261E-5 8.14638 9875 309.35
313.29 1.000576 4.186196E-3 0.693025  3.268E-5 8.14546 9905 309.25
313.19 1.000576 3.775192E-3 0.693044  3.267E-5 8.14601 9935 309.20
313.10 1.000576 3.850563E-3 0.693095  3.284E-5 8.14458 9964 309.15
313.01 1.000576 3.691859E-3 0.692992  3.267E-5 8.14598 9994 309.05
312.91 1.000576 3.891222E-3 0.693089  3.286E-5 8.14547 10024 308.95
312.83 1.000576 3.900034E-3 0.693069  3.262E-5 8.14475 10053 308.90
312.72 1.000576 3.906774E-3 0.692988  3.275E-5 8.14470 10083 308.85
312.63 1.000576 3.468493E-3 0.692811  3.275E-5 8.14639 10113 308.75
312.54 1.000576 3.667752E-3 0.693074  3.277E-5 8.14447 10142 308.70
312.45 1.000576 3.776357E-3 0.692919  3.261E-5 8.14444 10172 308.65
312.30 1.000576 3.851595E-3 0.693208  3.269E-5 8.14446 10202 308.60
312.25 1.000576 3.844417E-3 0.693104  3.272E-5 8.14380 10232 308.50
312.15 1.000576 4.210498E-3 0.693300  3.276E-5 8.14338 10261 308.40
312.07 1.000576 3.568982E-3 0.692950  3.274E-5 8.14264 10291 308.40
311.95 1.000576 3.761191E-3 0.693226  3.275E-5 8.14238 10321 308.30
311.87 1.000576 3.842381E-3 0.693247  3.275E-5 8.14243 10350 308.25
311.78 1.000576 3.987277E-3 0.693233  3.265E-5 8.14295 10380 308.15
311.69 1.000576 3.818303E-3 0.693213  3.281E-5 8.14223 10410 308.10
311.64 1.000576 3.692702E-3 0.693274  3.267E-5 8.14314 10439 308.00
311.57 1.000576 3.716291E-3 0.693393  3.264E-5 8.14186 10469 307.95
311.46 1.000576 3.929716E-3 0.693382  3.275E-5 8.14198 10499 307.90
311.40 1.000576 3.894954E-3 0.693497  3.273E-5 8.14206 10529 307.85
311.31 1.000576 3.825467E-3 0.693274  3.277E-5 8.14110 10558 307.80
311.24 1.000576 3.961819E-3 0.693553  3.265E-5 8.14170 10588 307.70
311.16 1.000576 3.454488E-3 0.693342  3.279E-5 8.14163 10618 307.65
311.07 1.000576 3.897290E-3 0.693335  3.282E-5 8.14150 10647 307.60
310.98 1.000576 3.652878E-3 0.693354  3.280E-5 8.14055 10677 307.55
310.91 1.000576 3.889170E-3 0.693262  3.271E-5 8.14099 10707 307.45
310.82 1.000576 3.783341E-3 0.693530  3.263E-5 8.13927 10736 307.45
310.72 1.000576 3.689048E-3 0.693495  3.283E-5 8.14013 10766 307.40
310.68 1.000576 3.754146E-3 0.693480  3.276E-5 8.14028 10796 307.35
310.59 1.000576 3.746401E-3 0.693513  3.272E-5 8.13935 10826 307.25
310.52 1.000576 3.446490E-3 0.693430  3.271E-5 8.13927 10855 307.20
310.43 1.000576 3.503431E-3 0.693505  3.266E-5 8.13933 10885 307.15
310.30 1.000576 4.057566E-3 0.693853  3.275E-5 8.13877 10915 307.10
310.26 1.000576 3.916259E-3 0.693656  3.265E-5 8.13899 10944 307.00
310.17 1.000576 3.521749E-3 0.693737  3.275E-5 8.13780 10974 306.95
310.08 1.000576 3.513315E-3 0.693433  3.278E-5 8.13826 11004 306.90
310.01 1.000576 3.790338E-3 0.693831  3.270E-5 8.13860 11033 306.85
309.93 1.000576 3.886258E-3 0.693593  3.279E-5 8.13671 11063 306.80
309.86 1.000576 3.786862E-3 0.693672  3.260E-5 8.13858 11093 306.70
309.79 1.000576 3.958309E-3 0.693756  3.283E-5 8.13703 11123 306.70
309.71 1.000576 3.500569E-3 0.693666  3.278E-5 8.13685 11152 306.60
309.64 1.000576 3.530503E-3 0.693888  3.269E-5 8.13698 11182 306.55
309.57 1.000576 3.747422E-3 0.693533  3.281E-5 8.13675 11212 306.55
309.53 1.000576 3.914664E-3 0.693756  3.263E-5 8.13619 11241 306.50
309.46 1.000576 3.472201E-3 0.693800  3.273E-5 8.13641 11271 306.40
309.36 1.000576 3.590038E-3 0.693861  3.274E-5 8.13690 11301 306.35
309.28 1.000576 3.281983E-3 0.693823  3.266E-5 8.13540 11330 306.30
309.21 1.000576 3.857639E-3 0.694020  3.268E-5 8.13576 11360 306.30
309.15 1.000576 3.908875E-3 0.694200  3.258E-5 8.13520 11390 306.20
309.09 1.000576 3.898698E-3 0.693911  3.261E-5 8.13580 11420 306.15
309.02 1.000576 3.755860E-3 0.694003  3.276E-5 8.13492 11449 306.15
308.95 1.000576 3.562713E-3 0.694222  3.268E-5 8.13514 11479 306.05
308.89 1.000576 3.787933E-3 0.693930  3.273E-5 8.13515 11509 306.05
308.81 1.000576 3.599465E-3 0.694110  3.266E-5 8.13367 11538 306.00
308.75 1.000576 3.348486E-3 0.694461  3.280E-5 8.13454 11568 305.90
308.67 1.000576 3.801008E-3 0.694274  3.262E-5 8.13335 11598 305.90
308.67 1.000576 3.743189E-3 0.694716  3.268E-5 8.13288 11627 305.80
308.58 1.000576 3.861604E-3 0.694827  3.269E-5 8.13123 11657 305.75
308.48 1.000576 3.664261E-3 0.694895  3.267E-5 8.13138 11687 305.70
308.45 1.000576 3.622749E-3 0.694580  3.255E-5 8.13089 11717 305.70
308.36 1.000576 3.826144E-3 0.694447  3.276E-5 8.13303 11746 305.65
308.30 1.000576 3.648813E-3 0.693987  3.264E-5 8.13310 11776 305.65
308.24 1.000576 3.805024E-3 0.694463  3.274E-5 8.13312 11806 305.55
308.18 1.000576 3.531321E-3 0.694228  3.273E-5 8.13215 11835 305.50
308.12 1.000576 3.520655E-3 0.694585  3.256E-5 8.13291 11865 305.50
308.06 1.000576 3.588800E-3 0.694386  3.280E-5 8.13301 11895 305.40
308.00 1.000576 3.734243E-3 0.694429  3.268E-5 8.13336 11924 305.35
307.94 1.000576 3.989325E-3 0.693838  3.270E-5 8.13316 11954 305.35
307.90 1.000576 4.137253E-3 0.694216  3.261E-5 8.13137 11984 305.30
307.87 1.000576 3.571926E-3 0.694361  3.259E-5 8.13108 12014 305.25
307.74 1.000576 3.725006E-3 0.694706  3.261E-5 8.13065 12043 305.20
307.75 1.000576 3.689235E-3 0.694682  3.260E-5 8.12936 12073 305.15
307.66 1.000576 3.595504E-3 0.695038  3.271E-5 8.12992 12103 305.10
307.57 1.000576 3.657898E-3 0.694910  3.266E-5 8.13030 12132 305.05
307.51 1.000576 3.879497E-3 0.695248  3.247E-5 8.12846 12162 305.05
307.48 1.000576 3.503788E-3 0.695754  3.254E-5 8.12757 12192 304.95
307.40 1.000576 3.623255E-3 0.696006  3.260E-5 8.12669 12221 304.90
307.39 1.000576 3.348552E-3 0.695338  3.272E-5 8.12743 12251 304.90
307.33 1.000576 3.598612E-3 0.694923  3.249E-5 8.12972 12281 304.85
307.27 1.000576 3.819014E-3 0.694739  3.264E-5 8.12946 12311 304.80
307.21 1.000576 3.851496E-3 0.694804  3.263E-5 8.12904 12340 304.80
307.19 1.000576 3.601797E-3 0.695039  3.254E-5 8.12798 12370 304.70
307.10 1.000576 3.669779E-3 0.695173  3.257E-5 8.12934 12400 304.70
307.02 1.000576 3.574015E-3 0.694750  3.279E-5 8.12870 12429 304.65
306.99 1.000576 3.577852E-3 0.694560  3.259E-5 8.12901 12459 304.60
306.94 1.000576 3.927182E-3 0.694693  3.274E-5 8.12957 12489 304.60
306.92 1.000576 3.904267E-3 0.694827  3.249E-5 8.12898 12518 304.55
306.84 1.000576 3.554950E-3 0.694689  3.267E-5 8.12909 12548 304.50
306.81 1.000576 3.721291E-3 0.694947  3.252E-5 8.12834 12578 304.45
306.76 1.000576 3.864226E-3 0.694739  3.266E-5 8.12805 12608 304.40
306.70 1.000576 3.455813E-3 0.695201  3.254E-5 8.12825 12637 304.40
306.65 1.000576 3.900523E-3 0.695021  3.274E-5 8.12824 12667 304.35
306.60 1.000576 3.656085E-3 0.695035  3.268E-5 8.12765 12697 304.30
306.55 1.000576 3.164833E-3 0.694834  3.251E-5 8.12706 12726 304.25
306.50 1.000576 3.471610E-3 0.695135  3.272E-5 8.12771 12756 304.25
306.44 1.000576 3.382086E-3 0.695117  3.273E-5 8.12647 12786 304.20
306.39 1.000576 3.684673E-3 0.695093  3.277E-5 8.12698 12815 304.20
306.35 1.000576 3.819482E-3 0.695098  3.267E-5 8.12725 12845 304.20
306.29 1.000576 3.154435E-3 0.695243  3.259E-5 8.12641 12875 304.10
306.25 1.000576 3.683188E-3 0.695330  3.265E-5 8.12601 12905 304.05
306.20 1.000576 3.664410E-3 0.695409  3.277E-5 8.12680 12934 304.05
306.14 1.000576 3.615111E-3 0.695334  3.256E-5 8.12467 12964 304.00
306.09 1.000576 3.143909E-3 0.695167  3.268E-5 8.12635 12994 303.95
306.04 1.000576 3.562273E-3 0.695411  3.263E-5 8.12484 13023 303.90
306.00 1.000576 3.789276E-3 0.695737  3.268E-5 8.12479 13053 303.90
305.95 1.000576 3.719870E-3 0.695677  3.268E-5 8.12544 13083 303.90
305.91 1.000576 3.539993E-3 0.695674  3.272E-5 8.12409 13112 303.80
305.87 1.000576 3.473006E-3 0.695874  3.269E-5 8.12482 13142 303.80
305.83 1.000576 3.627323E-3 0.695424  3.272E-5 8.12497 13172 303.70
305.79 1.000576 3.533979E-3 0.695999  3.261E-5 8.12423 13202 303.75
305.73 1.000576 3.653399E-3 0.696269  3.263E-5 8.12088 13231 303.70
305.69 1.000576 3.735354E-3 0.696612  3.260E-5 8.11968 13261 303.70
305.65 1.000576 3.627546E-3 0.696353  3.258E-5 8.12183 13291 303.65
305.60 1.000576 3.661612E-3 0.696372  3.265E-5 8.12070 13320 303.55
305.55 1.000576 3.636174E-3 0.696448  3.264E-5 8.12005 13350 303.55
305.51 1.000576 3.758658E-3 0.696246  3.244E-5 8.12133 13380 303.55
305.46 1.000576 3.582418E-3 0.696065  3.258E-5 8.12038 13409 303.50
305.41 1.000576 3.679397E-3 0.696574  3.269E-5 8.12062 13439 303.45
305.37 1.000576 3.660006E-3 0.696172  3.266E-5 8.12062 13469 303.45
305.33 1.000576 3.808977E-3 0.696320  3.257E-5 8.12122 13499 303.40
305.29 1.000576 3.394808E-3 0.696916  3.262E-5 8.11882 13528 303.40
305.25 1.000576 3.474189E-3 0.697083  3.256E-5 8.11711 13558 303.40
305.20 1.000576 3.573094E-3 0.697095  3.260E-5 8.11868 13588 303.35
305.15 1.000576 3.651932E-3 0.697303  3.236E-5 8.11781 13617 303.30
305.11 1.000576 3.772106E-3 0.697347  3.248E-5 8.11764 13647 303.30
305.06 1.000576 3.737460E-3 0.697304  3.259E-5 8.11722 13677 303.20
305.02 1.000576 3.902563E-3 0.697344  3.258E-5 8.11667 13706 303.20
305.02 1.000576 3.623722E-3 0.697370  3.248E-5 8.11741 13736 303.20
304.98 1.000576 3.587285E-3 0.697500  3.261E-5 8.11713 13766 303.20
304.96 1.000576 3.720618E-3 0.697402  3.253E-5 8.11787 13796 303.20
304.92 1.000576 3.583101E-3 0.696997  3.271E-5 8.11777 13825 303.10
304.88 1.000576 3.457970E-3 0.697126  3.254E-5 8.11604 13855 303.10
304.83 1.000576 3.041736E-3 0.697173  3.263E-5 8.11624 13885 303.00
304.78 1.000576 3.486625E-3 0.697412  3.268E-5 8.11714 13914 303.00
304.75 1.000576 3.793989E-3 0.697449  3.242E-5 8.11681 13944 303.00
304.71 1.000576 3.593136E-3 0.697389  3.264E-5 8.11774 13974 302.95
304.66 1.000576 3.739479E-3 0.697358  3.262E-5 8.11660 14003 303.00
304.63 1.000576 3.654405E-3 0.697375  3.278E-5 8.11566 14033 302.90
304.58 1.000576 3.798014E-3 0.697478  3.255E-5 8.11758 14063 302.85
304.54 1.000576 3.515676E-3 0.697329  3.265E-5 8.11647 14093 302.85
304.50 1.000576 3.856458E-3 0.697359  3.237E-5 8.11634 14122 302.80
304.51 1.000576 3.841618E-3 0.697298  3.252E-5 8.11585 14152 302.80
304.44 1.000576 3.549174E-3 0.697380  3.252E-5 8.11644 14182 302.80
304.40 1.000576 3.433135E-3 0.697393  3.254E-5 8.11624 14211 302.75
304.42 1.000576 3.800896E-3 0.697324  3.259E-5 8.11393 14241 302.70
304.38 1.000576 3.408428E-3 0.697312  3.265E-5 8.11632 14271 302.70
304.33 1.000576 4.006287E-3 0.697247  3.269E-5 8.11596 14300 302.65
304.31 1.000576 3.986418E-3 0.697286  3.246E-5 8.11590 14330 302.65
304.25 1.000576 3.648833E-3 0.697333  3.252E-5 8.11552 14360 302.65
304.24 1.000576 3.711536E-3 0.697355  3.257E-5 8.11419 14390 302.60
304.20 1.000576 4.092292E-3 0.697133  3.245E-5 8.11611 14419 302.60
304.16 1.000576 3.861729E-3 0.696973  3.259E-5 8.11674 14449 302.60
304.12 1.000576 3.536946E-3 0.697114  3.258E-5 8.11687 14479 302.55
304.07 1.000576 4.057651E-3 0.696600  3.239E-5 8.11697 14508 302.50
304.03 1.000576 3.632551E-3 0.696983  3.263E-5 8.11518 14538 302.50
303.99 1.000576 3.815184E-3 0.697074  3.258E-5 8.11497 14568 302.40
303.96 1.000576 4.000852E-3 0.697306  3.258E-5 8.11410 14597 302.40
303.92 1.000576 3.774236E-3 0.696873  3.258E-5 8.11638 14627 302.40
303.89 1.000576 3.689947E-3 0.697024  3.264E-5 8.11466 14657 302.40
303.86 1.000576 3.867345E-3 0.696684  3.260E-5 8.11745 14687 302.35
303.83 1.000576 3.661458E-3 0.696853  3.267E-5 8.11469 14716 302.40
303.80 1.000576 3.857263E-3 0.696720  3.266E-5 8.11538 14746 302.30
303.77 1.000576 3.221905E-3 0.696821  3.252E-5 8.11656 14776 302.30
303.73 1.000576 3.660081E-3 0.696866  3.264E-5 8.11578 14805 302.30
303.70 1.000576 3.874484E-3 0.697167  3.261E-5 8.11362 14835 302.30
303.67 1.000576 3.723238E-3 0.697627  3.249E-5 8.11281 14865 302.25
303.63 1.000576 3.621280E-3 0.697435  3.255E-5 8.11287 14894 302.20
303.60 1.000576 3.971833E-3 0.697776  3.269E-5 8.11257 14924 302.20
303.57 1.000576 3.885564E-3 0.697712  3.253E-5 8.11179 14954 302.20
303.54 1.000576 3.910473E-3 0.697581  3.244E-5 8.11218 14984 302.15
303.51 1.000576 3.767531E-3 0.697600  3.252E-5 8.11195 15013 302.10
303.48 1.000576 3.912220E-3 0.697889  3.249E-5 8.11307 15043 302.10
303.44 1.000576 3.833521E-3 0.697832  3.249E-5 8.11166 15073 302.10
303.41 1.000576 3.800092E-3 0.697786  3.269E-5 8.11058 15102 302.10
303.41 1.000576 4.110572E-3 0.697828  3.248E-5 8.11123 15132 302.05
303.38 1.000576 3.789726E-3 0.697633  3.248E-5 8.11170 15162 302.05
303.38 1.000576 4.207373E-3 0.697675  3.243E-5 8.11168 15191 302.05
303.34 1.000576 3.677970E-3 0.697761  3.254E-5 8.11115 15221 302.00
303.31 1.000576 3.753093E-3 0.697873  3.257E-5 8.11184 15251 301.95
303.28 1.000576 3.978070E-3 0.697640  3.260E-5 8.11132 15281 301.95
303.25 1.000576 3.829342E-3 0.697887  3.260E-5 8.11019 15310 301.90
303.22 1.000576 4.139945E-3 0.697772  3.258E-5 8.11127 15340 301.90
303.19 1.000576 3.933651E-3 0.697756  3.252E-5 8.11130 15370 301.90
303.16 1.000576 3.973815E-3 0.697797  3.248E-5 8.11063 15399 301.90
303.14 1.000576 3.925400E-3 0.697637  3.264E-5 8.10998 15429 301.90
303.11 1.000576 3.758417E-3 0.697880  3.250E-5 8.11031 15459 301.80
303.09 1.000576 3.826879E-3 0.697892  3.255E-5 8.11068 15488 301.80
303.05 1.000576 3.908527E-3 0.697947  3.253E-5 8.11014 15518 301.80
303.02 1.000576 3.873551E-3 0.697813  3.258E-5 8.11034 15548 301.80
302.99 1.000576 3.775312E-3 0.697882  3.251E-5 8.11009 15578 301.75
302.97 1.000576 3.890723E-3 0.697992  3.251E-5 8.11083 15607 301.75
302.94 1.000576 3.846695E-3 0.697831  3.252E-5 8.11116 15637 301.70
302.92 1.000576 3.624946E-3 0.697702  3.254E-5 8.11023 15667 301.70
302.90 1.000576 3.619114E-3 0.697739  3.253E-5 8.10971 15696 301.70
302.87 1.000576 3.648147E-3 0.697843  3.253E-5 8.10956 15726 301.70
302.84 1.000576 3.758264E-3 0.697942  3.257E-5 8.10945 15756 301.70
302.81 1.000576 3.837398E-3 0.697729  3.244E-5 8.10887 15785 301.65
302.79 1.000576 3.722261E-3 0.697900  3.249E-5 8.11056 15815 301.60
302.76 1.000576 3.659527E-3 0.697790  3.263E-5 8.10789 15845 301.60
302.73 1.000576 4.072500E-3 0.697813  3.260E-5 8.10936 15875 301.60
302.71 1.000576 3.827112E-3 0.697873  3.251E-5 8.10895 15904 301.60
302.68 1.000576 4.039454E-3 0.697587  3.247E-5 8.10838 15934 301.55
302.66 1.000576 3.566508E-3 0.697806  3.254E-5 8.10976 15964 301.55
302.64 1.000576 3.991477E-3 0.698050  3.252E-5 8.10867 15993 301.50
302.61 1.000576 3.715827E-3 0.697874  3.248E-5 8.10953 16023 301.50
302.58 1.000576 3.676802E-3 0.697984  3.258E-5 8.10764 16053 301.50
302.56 1.000576 3.724283E-3 0.697785  3.241E-5 8.10847 16082 301.50
302.54 1.000576 3.688765E-3 0.697651  3.247E-5 8.10909 16112 301.45
302.52 1.000576 3.846353E-3 0.697798  3.260E-5 8.10939 16142 301.40
302.48 1.000576 3.802532E-3 0.698126  3.253E-5 8.10786 16172 301.40
302.46 1.000576 4.201417E-3 0.697780  3.248E-5 8.10786 16201 301.40
302.43 1.000576 3.706779E-3 0.697732  3.252E-5 8.10841 16231 301.40
302.40 1.000576 3.605074E-3 0.698166  3.249E-5 8.10655 16261 301.35
302.44 1.000576 3.932715E-3 0.697849  3.256E-5 8.10787 16290 301.30
302.39 1.000576 3.690561E-3 0.697899  3.270E-5 8.10770 16320 301.30
302.34 1.000576 4.027538E-3 0.697913  3.259E-5 8.10728 16350 301.40
302.31 1.000576 3.842210E-3 0.697857  3.251E-5 8.10772 16379 301.30
302.30 1.000576 3.817675E-3 0.698034  3.254E-5 8.10623 16409 301.30
302.27 1.000576 4.031696E-3 0.698089  3.245E-5 8.10701 16439 301.30
302.26 1.000576 3.871187E-3 0.698156  3.262E-5 8.10500 16469 301.30
302.27 1.000576 3.957069E-3 0.697946  3.259E-5 8.10575 16498 301.30
302.22 1.000576 3.857468E-3 0.698177  3.253E-5 8.10764 16528 301.25
302.19 1.000576 3.997474E-3 0.697932  3.257E-5 8.10559 16558 301.20
302.23 1.000576 3.863066E-3 0.698167  3.256E-5 8.10647 16587 301.20
302.21 1.000576 3.724877E-3 0.698070  3.247E-5 8.10704 16617 301.20
302.19 1.000576 4.433536E-3 0.697850  3.268E-5 8.10558 16647 301.20
302.16 1.000576 3.651780E-3 0.698259  3.237E-5 8.10760 16676 301.20
302.14 1.000576 3.945857E-3 0.698097  3.252E-5 8.10616 16706 301.20
302.12 1.000576 4.360706E-3 0.698346  3.262E-5 8.10536 16736 301.10
302.09 1.000576 4.124721E-3 0.698296  3.247E-5 8.10570 16766 301.10
302.07 1.000576 4.179329E-3 0.698128  3.251E-5 8.10576 16795 301.10
302.02 1.000576 3.950514E-3 0.698248  3.256E-5 8.10653 16825 301.10
302.03 1.000576 3.955690E-3 0.698364  3.244E-5 8.10690 16855 301.10
302.02 1.000576 4.168799E-3 0.698143  3.264E-5 8.10635 16884 301.10
302.01 1.000576 3.966042E-3 0.698036  3.262E-5 8.10664 16914 301.05
301.98 1.000576 3.810677E-3 0.698273  3.254E-5 8.10718 16944 301.05
301.93 1.000576 3.974708E-3 0.697945  3.242E-5 8.10571 16973 301.05
301.94 1.000576 4.108969E-3 0.698296  3.248E-5 8.10624 17003 301.00
301.92 1.000576 3.806905E-3 0.698350  3.252E-5 8.10683 17033 301.00
301.86 1.000576 3.916810E-3 0.698168  3.262E-5 8.10588 17063 301.00
301.88 1.000576 3.847178E-3 0.698128  3.257E-5 8.10594 17092 301.00
301.86 1.000576 3.763386E-3 0.698426  3.253E-5 8.10567 17122 301.00
301.84 1.000576 4.047381E-3 0.698752  3.251E-5 8.10499 17152 301.00
301.83 1.000576 3.931558E-3 0.698688  3.249E-5 8.10375 17181 300.95
301.80 1.000576 4.120781E-3 0.698779  3.253E-5 8.10430 17211 300.95
301.78 1.000576 3.721955E-3 0.698496  3.249E-5 8.10473 17241 300.95
301.76 1.000576 4.133839E-3 0.698594  3.241E-5 8.10555 17270 300.90
301.74 1.000576 3.929100E-3 0.698394  3.251E-5 8.10436 17300 300.90
301.72 1.000576 3.743343E-3 0.698492  3.239E-5 8.10564 17330 300.90
301.69 1.000576 3.983189E-3 0.698576  3.250E-5 8.10500 17360 300.90
301.68 1.000576 3.752176E-3 0.698652  3.252E-5 8.10515 17389 300.85
301.67 1.000576 4.031603E-3 0.698645  3.252E-5 8.10450 17419 300.80
301.65 1.000576 4.014282E-3 0.698499  3.245E-5 8.10237 17449 300.80
301.64 1.000576 3.835429E-3 0.698696  3.260E-5 8.10307 17478 300.85
301.62 1.000576 4.039470E-3 0.698969  3.248E-5 8.10377 17508 300.80
301.61 1.000576 4.112731E-3 0.698796  3.245E-5 8.10310 17538 300.80
301.58 1.000576 3.947355E-3 0.698596  3.243E-5 8.10465 17567 300.80
301.57 1.000576 4.168120E-3 0.698845  3.249E-5 8.10489 17597 300.80
301.56 1.000576 3.835517E-3 0.698747  3.256E-5 8.10288 17627 300.80
301.54 1.000576 3.961503E-3 0.698858  3.238E-5 8.10278 17657 300.80
301.52 1.000576 3.616136E-3 0.698594  3.244E-5 8.10378 17686 300.70
301.51 1.000576 3.600755E-3 0.698757  3.249E-5 8.10321 17716 300.70
301.49 1.000576 4.084318E-3 0.698603  3.257E-5 8.10355 17746 300.70
301.47 1.000576 3.791766E-3 0.698724  3.240E-5 8.10281 17775 300.70
301.45 1.000576 4.079925E-3 0.698672  3.255E-5 8.10270 17805 300.70
301.44 1.000576 3.828220E-3 0.698644  3.257E-5 8.10219 17835 300.70
301.42 1.000576 4.325278E-3 0.698903  3.258E-5 8.10275 17864 300.70
301.40 1.000576 3.876539E-3 0.698652  3.243E-5 8.10208 17894 300.65
301.38 1.000576 3.813476E-3 0.698631  3.248E-5 8.10327 17924 300.70
301.36 1.000576 3.833830E-3 0.698665  3.247E-5 8.10225 17954 300.65
301.34 1.000576 3.583727E-3 0.698843  3.252E-5 8.10312 17983 300.60
301.33 1.000576 3.846236E-3 0.698557  3.251E-5 8.10217 18013 300.60
301.31 1.000576 4.386141E-3 0.698922  3.246E-5 8.10209 18043 300.60
301.29 1.000576 3.973250E-3 0.698468  3.244E-5 8.10244 18072 300.60
301.27 1.000576 4.115445E-3 0.698723  3.254E-5 8.10189 18102 300.60
301.25 1.000576 4.071531E-3 0.698819  3.249E-5 8.10313 18132 300.60
301.23 1.000576 4.119451E-3 0.698880  3.264E-5 8.10265 18161 300.55
301.22 1.000576 4.113333E-3 0.698682  3.252E-5 8.10303 18191 300.55
301.21 1.000576 3.851131E-3 0.698771  3.261E-5 8.10200 18221 300.55
301.19 1.000576 4.049338E-3 0.698851  3.247E-5 8.10138 18251 300.50
301.18 1.000576 4.001586E-3 0.698984  3.255E-5 8.10109 18280 300.40
301.18 1.000576 4.063007E-3 0.698845  3.251E-5 8.10081 18310 300.40
301.17 1.000576 3.916425E-3 0.698725  3.266E-5 8.10023 18340 300.40
301.15 1.000576 3.874871E-3 0.698726  3.242E-5 8.10131 18369 300.40
301.14 1.000576 4.340555E-3 0.698837  3.259E-5 8.09987 18399 300.40
301.13 1.000576 4.145395E-3 0.698865  3.262E-5 8.10187 18429 300.40
301.11 1.000576 3.838448E-3 0.698874  3.258E-5 8.10263 18458 300.40
301.10 1.000576 3.730746E-3 0.698929  3.253E-5 8.10210 18488 300.35
301.08 1.000576 4.045030E-3 0.698851  3.252E-5 8.10204 18518 300.30
301.06 1.000576 4.040727E-3 0.698915  3.250E-5 8.10158 18548 300.30
301.05 1.000576 4.012254E-3 0.699121  3.255E-5 8.10156 18577 300.30
301.04 1.000576 4.020258E-3 0.699059  3.244E-5 8.10131 18607 300.30
301.03 1.000576 3.968040E-3 0.699224  3.256E-5 8.10192 18637 300.30
301.02 1.000576 3.980414E-3 0.698939  3.237E-5 8.10278 18666 300.30
301.01 1.000576 3.964444E-3 0.698980  3.255E-5 8.10127 18696 300.30
300.99 1.000576 3.862385E-3 0.699213  3.245E-5 8.10182 18726 300.30
300.97 1.000576 4.185891E-3 0.698860  3.249E-5 8.10212 18755 300.30
300.96 1.000576 3.803644E-3 0.699075  3.250E-5 8.10222 18785 300.30
300.95 1.000576 4.003300E-3 0.698809  3.241E-5 8.10198 18815 300.20
300.95 1.000576 3.510030E-3 0.698918  3.247E-5 8.10142 18845 300.20
300.95 1.000576 3.913693E-3 0.698728  3.259E-5 8.10170 18874 300.20
300.91 1.000576 4.182719E-3 0.699010  3.254E-5 8.10162 18904 300.20
300.93 1.000576 4.144233E-3 0.699205  3.248E-5 8.10181 18934 300.20
300.88 1.000576 4.146781E-3 0.699110  3.252E-5 8.10225 18963 300.20
300.91 1.000576 3.576063E-3 0.698865  3.260E-5 8.10048 18993 300.20
300.86 1.000576 3.843973E-3 0.698702  3.257E-5 8.10037 19023 300.20
300.85 1.000576 4.040263E-3 0.698775  3.248E-5 8.10096 19052 300.20
300.84 1.000576 3.951751E-3 0.698872  3.243E-5 8.10047 19082 300.15
300.83 1.000576 3.980930E-3 0.699087  3.245E-5 8.10108 19112 300.20
300.81 1.000576 4.073929E-3 0.698941  3.240E-5 8.10084 19142 300.10
300.80 1.000576 3.780404E-3 0.699195  3.261E-5 8.10041 19171 300.20
300.79 1.000576 3.929096E-3 0.698845  3.254E-5 8.10101 19201 300.15
300.77 1.000576 4.027576E-3 0.698963  3.258E-5 8.09977 19231 300.10
300.77 1.000576 3.807870E-3 0.698876  3.251E-5 8.10089 19260 300.10
300.77 1.000576 4.205810E-3 0.699062  3.265E-5 8.10207 19290 300.10
300.76 1.000576 4.125831E-3 0.698248  3.247E-5 8.10253 19320 300.10
300.74 1.000576 4.023066E-3 0.698564  3.242E-5 8.10072 19349 300.10
300.72 1.000576 3.830040E-3 0.699129  3.231E-5 8.10189 19379 300.10
300.75 1.000576 4.016836E-3 0.698604  3.238E-5 8.10106 19409 300.10
300.71 1.000576 3.826777E-3 0.698714  3.250E-5 8.10202 19439 300.10
300.73 1.000576 3.866248E-3 0.698661  3.264E-5 8.10121 19468 300.10
300.68 1.000576 4.173004E-3 0.698637  3.258E-5 8.10194 19498 300.05
300.66 1.000576 3.663540E-3 0.698645  3.244E-5 8.10191 19528 300.05
300.67 1.000576 4.156299E-3 0.698736  3.257E-5 8.10122 19557 300.00
300.66 1.000576 4.209356E-3 0.698912  3.245E-5 8.10070 19587 300.05
300.66 1.000576 3.931207E-3 0.699122  3.254E-5 8.10122 19617 300.00
300.68 1.000576 4.071866E-3 0.699002  3.240E-5 8.10154 19646 300.00
300.65 1.000576 3.817271E-3 0.699126  3.262E-5 8.10066 19676 300.00
300.67 1.000576 3.852133E-3 0.699406  3.244E-5 8.10059 19706 300.00
300.66 1.000576 4.072249E-3 0.699086  3.256E-5 8.10062 19736 300.00
300.65 1.000576 4.088373E-3 0.698905  3.260E-5 8.09997 19765 300.00
300.64 1.000576 3.779198E-3 0.698800  3.250E-5 8.10071 19795 300.00
300.63 1.000576 4.127953E-3 0.699029  3.247E-5 8.10135 19825 300.00
300.58 1.000576 4.093125E-3 0.698633  3.254E-5 8.09966 19854 300.00
300.60 1.000576 4.034989E-3 0.698964  3.257E-5 8.10028 19884 299.95
300.59 1.000576 3.982130E-3 0.698775  3.248E-5 8.09948 19914 300.00
300.58 1.000576 4.036740E-3 0.698684  3.251E-5 8.10135 19943 299.95
300.57 1.000576 4.169490E-3 0.698609  3.262E-5 8.10024 19973 299.95
300.55 1.000576 3.944540E-3 0.698705  3.247E-5 8.10077 20003 299.90
300.55 1.000576 3.780431E-3 0.698703  3.245E-5 8.10038 20033 299.95
300.54 1.000576 4.007152E-3 0.698537  3.246E-5 8.09959 20062 299.90
300.53 1.000576 3.976815E-3 0.698941  3.255E-5 8.09964 20092 299.90
300.51 1.000576 4.131443E-3 0.699097  3.251E-5 8.09943 20122 299.90
300.45 1.000576 3.489463E-3 0.698939  3.249E-5 8.09929 20151 299.90
300.48 1.000576 3.916576E-3 0.698831  3.250E-5 8.09900 20181 299.90
300.48 1.000576 4.181274E-3 0.698867  3.251E-5 8.09875 20211 299.90
300.43 1.000576 3.763093E-3 0.698792  3.246E-5 8.09871 20240 299.90
300.43 1.000576 4.046049E-3 0.698877  3.247E-5 8.09855 20270 299.90
300.42 1.000576 4.104298E-3 0.698907  3.251E-5 8.09821 20300 299.90
300.41 1.000576 4.012937E-3 0.698627  3.246E-5 8.09978 20330 299.90
300.40 1.000576 3.962648E-3 0.698699  3.244E-5 8.09931 20359 299.90
300.39 1.000576 3.795495E-3 0.698787  3.263E-5 8.09784 20389 299.90
300.39 1.000576 3.908229E-3 0.698726  3.267E-5 8.09867 20419 299.90
300.37 1.000576 3.998433E-3 0.698591  3.251E-5 8.09844 20448 299.85
300.37 1.000576 3.916360E-3 0.698794  3.253E-5 8.09658 20478 299.80
300.36 1.000576 3.599793E-3 0.698578  3.247E-5 8.09900 20508 299.80
300.35 1.000576 3.870147E-3 0.698531  3.238E-5 8.09946 20537 299.80
300.34 1.000576 3.831784E-3 0.698561  3.255E-5 8.09894 20567 299.80
300.34 1.000576 3.749685E-3 0.698438  3.264E-5 8.09697 20597 299.80
300.33 1.000576 4.068718E-3 0.698566  3.252E-5 8.09882 20627 299.80
300.33 1.000576 3.905416E-3 0.698515  3.248E-5 8.09740 20656 299.80
300.31 1.000576 3.960233E-3 0.698159  3.266E-5 8.09907 20686 299.80
300.30 1.000576 3.858605E-3 0.698298  3.254E-5 8.09895 20716 299.80
300.30 1.000576 4.078493E-3 0.698047  3.249E-5 8.09847 20745 299.80
300.28 1.000576 4.259223E-3 0.698362  3.247E-5 8.09921 20775 299.80
300.28 1.000576 4.483584E-3 0.698048  3.267E-5 8.09846 20805 299.80
300.27 1.000576 4.076890E-3 0.698298  3.240E-5 8.09720 20834 299.80
300.26 1.000576 3.997866E-3 0.698157  3.252E-5 8.09680 20864 299.80
300.25 1.000576 3.923779E-3 0.698340  3.235E-5 8.09840 20894 299.80
300.24 1.000576 3.815867E-3 0.698268  3.246E-5 8.09699 20924 299.80
300.22 1.000576 3.795773E-3 0.698175  3.255E-5 8.09786 20953 299.75
300.24 1.000576 3.759752E-3 0.698393  3.253E-5 8.09688 20983 299.70
300.22 1.000576 4.107013E-3 0.698195  3.241E-5 8.09744 21013 299.70
300.24 1.000576 3.762118E-3 0.698378  3.256E-5 8.09644 21042 299.70
300.24 1.000576 3.841268E-3 0.698006  3.247E-5 8.09597 21072 299.70
300.22 1.000576 4.077034E-3 0.698457  3.242E-5 8.09670 21102 299.70
300.22 1.000576 3.956103E-3 0.698189  3.256E-5 8.09580 21131 299.70
300.21 1.000576 4.028277E-3 0.698390  3.250E-5 8.09669 21161 299.70
300.20 1.000576 3.864250E-3 0.698511  3.236E-5 8.09612 21191 299.70
300.20 1.000576 4.047534E-3 0.698532  3.236E-5 8.09704 21221 299.70
300.19 1.000576 3.822569E-3 0.698654  3.236E-5 8.09655 21250 299.70
300.18 1.000576 4.077692E-3 0.698861  3.251E-5 8.09496 21280 299.70
300.17 1.000576 4.107718E-3 0.698551  3.246E-5 8.09657 21310 299.70
300.16 1.000576 3.911073E-3 0.698572  3.243E-5 8.09534 21339 299.70
300.16 1.000576 4.004338E-3 0.698541  3.233E-5 8.09493 21369 299.70
300.16 1.000576 3.979020E-3 0.698777  3.243E-5 8.09492 21399 299.70
300.15 1.000576 3.903484E-3 0.698807  3.251E-5 8.09507 21428 299.70
300.15 1.000576 3.664945E-3 0.698552  3.248E-5 8.09382 21458 299.70
300.14 1.000576 3.804406E-3 0.698755  3.246E-5 8.09547 21488 299.70
300.14 1.000576 4.001132E-3 0.698196  3.244E-5 8.09416 21518 299.70
300.12 1.000576 3.909565E-3 0.698492  3.254E-5 8.09473 21547 299.70
300.10 1.000576 4.171728E-3 0.698539  3.255E-5 8.09548 21577 299.70
300.10 1.000576 3.977239E-3 0.698553  3.253E-5 8.09618 21607 299.65
300.10 1.000576 3.992384E-3 0.698635  3.254E-5 8.09419 21636 299.65
300.09 1.000576 3.497728E-3 0.698696  3.242E-5 8.09480 21666 299.60
300.09 1.000576 3.927981E-3 0.698540  3.250E-5 8.09576 21696 299.60
300.05 1.000576 3.744104E-3 0.698865  3.255E-5 8.09581 21725 299.65
300.07 1.000576 3.960449E-3 0.698392  3.268E-5 8.09597 21755 299.60
300.00 1.000576 3.931797E-3 0.698281  3.246E-5 8.09630 21785 299.60
300.03 1.000576 3.945018E-3 0.698314  3.250E-5 8.09664 21815 299.60
300.01 1.000576 4.004233E-3 0.698370  3.251E-5 8.09573 21844 299.60
300.01 1.000576 3.786532E-3 0.698382  3.248E-5 8.09530 21874 299.60
300.05 1.000576 4.226695E-3 0.698357  3.252E-5 8.09609 21904 299.60
300.03 1.000576 4.065973E-3 0.698545  3.247E-5 8.09559 21933 299.60
300.02 1.000576 3.922454E-3 0.698318  3.248E-5 8.09552 21963 299.60
300.05 1.000576 4.212558E-3 0.698702  3.234E-5 8.09542 21993 299.60
300.03 1.000576 3.837738E-3 0.698311  3.253E-5 8.09771 22022 299.60
300.03 1.000576 3.997140E-3 0.698137  3.260E-5 8.09752 22052 299.60
300.02 1.000576 3.573061E-3 0.698123  3.259E-5 8.09591 22082 299.60
300.01 1.000576 4.007715E-3 0.697945  3.249E-5 8.09712 22112 299.60
300.01 1.000576 3.914053E-3 0.698330  3.252E-5 8.09600 22141 299.55
300.00 1.000576 3.348391E-3 0.698516  3.251E-5 8.09627 22171 299.50
299.99 1.000576 3.832520E-3 0.698235  3.261E-5 8.09535 22201 299.55
299.99 1.000576 3.911739E-3 0.698159  3.248E-5 8.09500 22230 299.60
299.98 1.000576 3.828859E-3 0.698068  3.257E-5 8.09668 22260 299.55
299.95 1.000576 3.858751E-3 0.698354  3.255E-5 8.09566 22290 299.60
299.98 1.000576 3.634319E-3 0.698132  3.257E-5 8.09547 22319 299.60
299.97 1.000576 3.936464E-3 0.698229  3.251E-5 8.09520 22349 299.60
299.97 1.000576 3.781813E-3 0.698017  3.257E-5 8.09531 22379 299.60
299.95 1.000576 3.892554E-3 0.698219  3.266E-5 8.09560 22409 299.50
299.94 1.000576 3.771048E-3 0.698145  3.247E-5 8.09597 22438 299.50
299.93 1.000576 4.179559E-3 0.698187  3.250E-5 8.09571 22468 299.50
299.92 1.000576 4.059238E-3 0.697824  3.237E-5 8.09545 22498 299.50
299.91 1.000576 4.210934E-3 0.697978  3.248E-5 8.09580 22527 299.50
299.91 1.000576 3.997991E-3 0.698137  3.258E-5 8.09513 22557 299.50
299.89 1.000576 4.094326E-3 0.698334  3.264E-5 8.09607 22587 299.50
299.87 1.000576 3.864849E-3 0.698136  3.250E-5 8.09432 22616 299.50
299.90 1.000576 4.083345E-3 0.698382  3.238E-5 8.09600 22646 299.50
299.90 1.000576 4.172647E-3 0.698213  3.266E-5 8.09568 22676 299.50
299.89 1.000576 4.204854E-3 0.698479  3.260E-5 8.09570 22706 299.50
299.88 1.000576 4.043073E-3 0.698304  3.257E-5 8.09544 22735 299.50
299.87 1.000576 3.467895E-3 0.698767  3.252E-5 8.09518 22765 299.50
299.86 1.000576 3.935884E-3 0.698403  3.254E-5 8.09526 22795 299.45
299.86 1.000576 4.074626E-3 0.698701  3.243E-5 8.09443 22824 299.45
299.85 1.000576 4.094010E-3 0.698934  3.241E-5 8.09417 22854 299.45
299.85 1.000576 4.230650E-3 0.698695  3.249E-5 8.09531 22884 299.50
299.84 1.000576 3.986888E-3 0.698924  3.262E-5 8.09521 22913 299.45
299.84 1.000576 4.217085E-3 0.698417  3.255E-5 8.09558 22943 299.45
299.83 1.000576 4.059989E-3 0.698675  3.250E-5 8.09570 22973 299.40
299.80 1.000576 4.052236E-3 0.698606  3.244E-5 8.09555 23003 299.45
299.77 1.000576 3.913164E-3 0.698548  3.252E-5 8.09503 23032 299.40
299.77 1.000576 3.801254E-3 0.698592  3.243E-5 8.09409 23062 299.50
299.78 1.000576 3.775289E-3 0.698468  3.240E-5 8.09550 23092 299.45
299.78 1.000576 4.188647E-3 0.698425  3.254E-5 8.09413 23121 299.45
299.77 1.000576 3.848413E-3 0.698653  3.249E-5 8.09483 23151 299.45
299.77 1.000576 3.885034E-3 0.698632  3.251E-5 8.09382 23181 299.50
299.76 1.000576 4.024043E-3 0.698435  3.261E-5 8.09542 23210 299.45
299.79 1.000576 3.860723E-3 0.698578  3.246E-5 8.09495 23240 299.40
299.75 1.000576 4.265268E-3 0.698422  3.263E-5 8.09582 23270 299.40
299.77 1.000576 3.844341E-3 0.698147  3.252E-5 8.09558 23300 299.40
299.76 1.000576 4.375426E-3 0.698222  3.253E-5 8.09568 23329 299.40
299.72 1.000576 3.728217E-3 0.698108  3.250E-5 8.09532 23359 299.40
299.71 1.000576 3.967532E-3 0.698218  3.257E-5 8.09470 23389 299.40
299.70 1.000576 3.798318E-3 0.698294  3.252E-5 8.09540 23418 299.40
299.71 1.000576 4.044949E-3 0.698243  3.248E-5 8.09597 23448 299.40
299.71 1.000576 3.870394E-3 0.698109  3.251E-5 8.09463 23478 299.40
299.71 1.000576 4.027340E-3 0.698001  3.244E-5 8.09594 23507 299.40
299.71 1.000576 3.887103E-3 0.698178  3.270E-5 8.09497 23537 299.40
299.71 1.000576 3.980580E-3 0.698143  3.258E-5 8.09471 23567 299.40
299.70 1.000576 3.649182E-3 0.698200  3.249E-5 8.09544 23597 299.40
299.70 1.000576 3.739416E-3 0.698348  3.234E-5 8.09604 23626 299.40
299.69 1.000576 3.697041E-3 0.698440  3.248E-5 8.09475 23656 299.40
299.69 1.000576 3.913598E-3 0.698303  3.262E-5 8.09588 23686 299.40
299.69 1.000576 3.752131E-3 0.698154  3.248E-5 8.09566 23715 299.40
299.72 1.000576 3.702890E-3 0.698328  3.265E-5 8.09515 23745 299.40
299.69 1.000576 3.832735E-3 0.698165  3.260E-5 8.09442 23775 299.35
299.70 1.000576 4.046955E-3 0.698144  3.259E-5 8.09571 23804 299.40
299.68 1.000576 4.172187E-3 0.698265  3.254E-5 8.09695 23834 299.40
299.68 1.000576 4.063721E-3 0.698316  3.258E-5 8.09536 23864 299.40
299.67 1.000576 3.795387E-3 0.698088  3.251E-5 8.09575 23894 299.40
299.67 1.000576 4.068891E-3 0.698361  3.258E-5 8.09552 23923 299.35
299.67 1.000576 3.928143E-3 0.698334  3.251E-5 8.09508 23953 299.40
299.67 1.000576 3.967007E-3 0.698405  3.253E-5 8.09710 23983 299.35
299.67 1.000576 3.816833E-3 0.698486  3.243E-5 8.09594 24012 299.35
299.66 1.000576 4.107058E-3 0.698288  3.255E-5 8.09676 24042 299.35
299.65 1.000576 3.824744E-3 0.698131  3.238E-5 8.09659 24072 299.40
299.64 1.000576 4.409676E-3 0.698450  3.255E-5 8.09651 24101 299.40
299.62 1.000576 4.058241E-3 0.698369  3.255E-5 8.09699 24131 299.40
299.68 1.000576 3.859219E-3 0.698234  3.248E-5 8.09594 24161 299.35
299.62 1.000576 4.249347E-3 0.698251  3.260E-5 8.09731 24191 299.30
299.61 1.000576 3.920868E-3 0.698517  3.257E-5 8.09652 24220 299.35
299.60 1.000576 4.062488E-3 0.698234  3.250E-5 8.09704 24250 299.30
299.60 1.000576 3.889982E-3 0.698119  3.254E-5 8.09711 24280 299.30
299.60 1.000576 3.989464E-3 0.698332  3.259E-5 8.09701 24309 299.30
299.61 1.000576 3.828842E-3 0.698082  3.253E-5 8.09682 24339 299.30
299.61 1.000576 3.946629E-3 0.698009  3.256E-5 8.09583 24369 299.30
299.60 1.000576 3.443285E-3 0.698059  3.237E-5 8.09578 24398 299.30
299.58 1.000576 4.111355E-3 0.698254  3.248E-5 8.09588 24428 299.30
299.61 1.000576 3.948466E-3 0.697877  3.263E-5 8.09637 24458 299.30
299.61 1.000576 4.205588E-3 0.697956  3.253E-5 8.09606 24488 299.30
299.58 1.000576 3.953122E-3 0.698171  3.259E-5 8.09731 24517 299.30
299.57 1.000576 3.948688E-3 0.698005  3.242E-5 8.09663 24547 299.30
299.56 1.000576 3.439662E-3 0.698000  3.252E-5 8.09725 24577 299.30
299.56 1.000576 3.858869E-3 0.697905  3.259E-5 8.09677 24606 299.30
299.56 1.000576 4.130942E-3 0.697931  3.259E-5 8.09694 24636 299.30
299.57 1.000576 3.664753E-3 0.697780  3.246E-5 8.09589 24666 299.30
299.55 1.000576 3.931231E-3 0.698164  3.258E-5 8.09806 24695 299.30
299.56 1.000576 3.922071E-3 0.697894  3.257E-5 8.09683 24725 299.30
299.56 1.000576 3.580120E-3 0.698094  3.247E-5 8.09773 24755 299.30
299.56 1.000576 3.754631E-3 0.697934  3.251E-5 8.09711 24785 299.30
299.55 1.000576 3.728366E-3 0.697935  3.261E-5 8.09665 24814 299.30
299.54 1.000576 3.936367E-3 0.697476  3.249E-5 8.09646 24844 299.30
299.53 1.000576 3.725485E-3 0.697712  3.261E-5 8.09644 24874 299.30
299.53 1.000576 3.836823E-3 0.697597  3.250E-5 8.09627 24903 299.30
299.52 1.000576 4.047176E-3 0.697491  3.244E-5 8.09653 24933 299.30
299.52 1.000576 3.847456E-3 0.697629  3.249E-5 8.09712 24963 299.30
299.52 1.000576 3.703027E-3 0.697497  3.265E-5 8.09800 24992 299.30
299.52 1.000576 3.759825E-3 0.697923  3.254E-5 8.09627 25022 299.30
299.51 1.000576 4.016933E-3 0.697814  3.256E-5 8.09780 25052 299.30
299.51 1.000576 3.801370E-3 0.697595  3.244E-5 8.09753 25082 299.30
299.51 1.000576 3.585391E-3 0.697884  3.258E-5 8.09705 25111 299.25
299.51 1.000576 3.772053E-3 0.697958  3.245E-5 8.09651 25141 299.25
299.51 1.000576 3.839974E-3 0.697804  3.264E-5 8.09753 25171 299.30
299.51 1.000576 3.714301E-3 0.697685  3.257E-5 8.09735 25200 299.25
299.51 1.000576 4.129468E-3 0.697718  3.252E-5 8.09721 25230 299.25
299.51 1.000576 3.822252E-3 0.697581  3.243E-5 8.09648 25260 299.30
299.51 1.000576 3.929266E-3 0.697690  3.253E-5 8.09638 25289 299.25
299.51 1.000576 3.667557E-3 0.697731  3.260E-5 8.09697 25319 299.25
299.51 1.000576 3.753518E-3 0.697715  3.258E-5 8.09680 25349 299.25
299.51 1.000576 4.305639E-3 0.697836  3.246E-5 8.09685 25379 299.30
299.51 1.000576 3.841006E-3 0.697796  3.244E-5 8.09696 25408 299.25
299.50 1.000576 3.893096E-3 0.697758  3.250E-5 8.09820 25438 299.25
299.51 1.000576 4.181471E-3 0.697940  3.254E-5 8.09645 25468 299.30
299.51 1.000576 4.092492E-3 0.697713  3.259E-5 8.09598 25497 299.30
299.51 1.000576 4.071035E-3 0.697711  3.252E-5 8.09713 25527 299.25
299.50 1.000576 3.743125E-3 0.697668  3.255E-5 8.09819 25557 299.25
299.50 1.000576 3.850684E-3 0.697667  3.255E-5 8.09712 25586 299.25
299.49 1.000576 3.934123E-3 0.697924  3.263E-5 8.09679 25616 299.30
299.48 1.000576 3.807465E-3 0.697873  3.259E-5 8.09761 25646 299.25
299.48 1.000576 4.008308E-3 0.698484  3.250E-5 8.09743 25676 299.25
299.47 1.000576 4.001265E-3 0.697875  3.232E-5 8.09701 25705 299.25
299.47 1.000576 4.001837E-3 0.698035  3.255E-5 8.09731 25735 299.25
299.46 1.000576 3.959504E-3 0.698076  3.273E-5 8.09656 25765 299.20
299.46 1.000576 4.088322E-3 0.698254  3.249E-5 8.09678 25794 299.20
299.45 1.000576 3.545376E-3 0.698131  3.256E-5 8.09632 25824 299.20
299.45 1.000576 4.139705E-3 0.697994  3.251E-5 8.09755 25854 299.20
299.45 1.000576 3.888211E-3 0.698059  3.256E-5 8.09629 25883 299.20
299.45 1.000576 3.832908E-3 0.698231  3.258E-5 8.09703 25913 299.20
299.46 1.000576 3.664601E-3 0.698096  3.246E-5 8.09691 25943 299.20
299.45 1.000576 4.171714E-3 0.697953  3.257E-5 8.09692 25973 299.20
299.45 1.000576 3.789267E-3 0.697512  3.262E-5 8.09591 26002 299.20
299.45 1.000576 3.797324E-3 0.697803  3.262E-5 8.09778 26032 299.20
299.42 1.000576 4.108633E-3 0.697337  3.263E-5 8.09685 26062 299.20
299.46 1.000576 4.153285E-3 0.697835  3.250E-5 8.09653 26091 299.20
299.45 1.000576 4.245106E-3 0.697752  3.262E-5 8.09766 26121 299.20
299.44 1.000576 3.977436E-3 0.697712  3.270E-5 8.09709 26151 299.20
299.44 1.000576 3.744426E-3 0.697703  3.249E-5 8.09646 26180 299.20
299.43 1.000576 3.442845E-3 0.697886  3.248E-5 8.09691 26210 299.20
299.44 1.000576 3.602195E-3 0.698127  3.251E-5 8.09620 26240 299.20
299.43 1.000576 3.855266E-3 0.697662  3.254E-5 8.09671 26270 299.20
299.42 1.000576 3.903068E-3 0.697704  3.261E-5 8.09800 26299 299.20
299.43 1.000576 4.061807E-3 0.697829  3.258E-5 8.09770 26329 299.20
299.42 1.000576 3.794913E-3 0.697717  3.255E-5 8.09616 26359 299.20
299.42 1.000576 4.232069E-3 0.697702  3.253E-5 8.09557 26388 299.20
299.42 1.000576 4.115499E-3 0.697770  3.258E-5 8.09762 26418 299.20
299.41 1.000576 3.893181E-3 0.697616  3.263E-5 8.09704 26448 299.20
299.41 1.000576 4.070090E-3 0.698189  3.269E-5 8.09566 26477 299.20
299.41 1.000576 3.696916E-3 0.697961  3.255E-5 8.09717 26507 299.20
299.41 1.000576 4.090639E-3 0.697929  3.265E-5 8.09663 26537 299.20
299.41 1.000576 4.262580E-3 0.698041  3.264E-5 8.09677 26567 299.20
299.40 1.000576 3.616796E-3 0.698105  3.247E-5 8.09629 26596 299.20
299.40 1.000576 3.882420E-3 0.698154  3.235E-5 8.09718 26626 299.20
299.39 1.000576 3.967640E-3 0.698150  3.246E-5 8.09641 26656 299.20
299.40 1.000576 3.806523E-3 0.697855  3.260E-5 8.09739 26685 299.20
299.39 1.000576 4.352156E-3 0.698041  3.257E-5 8.09671 26715 299.20
299.38 1.000576 3.758876E-3 0.698219  3.253E-5 8.09779 26745 299.20
299.37 1.000576 4.015257E-3 0.697934  3.254E-5 8.09634 26774 299.20
299.37 1.000576 3.875929E-3 0.698162  3.256E-5 8.09671 26804 299.20
299.37 1.000576 3.883262E-3 0.697764  3.265E-5 8.09624 26834 299.20
299.37 1.000576 3.746334E-3 0.697880  3.255E-5 8.09610 26864 299.20
299.37 1.000576 3.946288E-3 0.697969  3.259E-5 8.09662 26893 299.20
299.38 1.000576 3.794548E-3 0.698033  3.265E-5 8.09748 26923 299.20
299.38 1.000576 4.216080E-3 0.698019  3.257E-5 8.09699 26953 299.20
299.38 1.000576 4.200163E-3 0.698042  3.252E-5 8.09643 26982 299.20
299.37 1.000576 3.807714E-3 0.697926  3.253E-5 8.09690 27012 299.20
299.37 1.000576 3.757530E-3 0.697950  3.250E-5 8.09666 27042 299.15
299.36 1.000576 4.019195E-3 0.697934  3.238E-5 8.09680 27071 299.20
299.36 1.000576 3.907162E-3 0.697912  3.255E-5 8.09724 27101 299.20
299.36 1.000576 3.821318E-3 0.697708  3.253E-5 8.09652 27131 299.20
299.36 1.000576 3.904809E-3 0.697813  3.260E-5 8.09692 27161 299.20
299.36 1.000576 3.984387E-3 0.697889  3.254E-5 8.09724 27190 299.20
299.37 1.000576 3.946439E-3 0.697521  3.264E-5 8.09869 27220 299.15
299.35 1.000576 4.222127E-3 0.697945  3.248E-5 8.09650 27250 299.20
299.35 1.000576 3.919998E-3 0.697920  3.251E-5 8.09767 27279 299.15
299.35 1.000576 4.322252E-3 0.697813  3.256E-5 8.09800 27309 299.15
299.34 1.000576 3.732055E-3 0.697567  3.244E-5 8.09727 27339 299.10
299.33 1.000576 3.982690E-3 0.697808  3.259E-5 8.09746 27368 299.15
299.33 1.000576 3.740344E-3 0.697848  3.263E-5 8.09712 27398 299.10
299.33 1.000576 3.852358E-3 0.697721  3.257E-5 8.09822 27428 299.20
299.33 1.000576 4.204985E-3 0.698059  3.264E-5 8.09692 27458 299.20
299.34 1.000576 3.830918E-3 0.697894  3.246E-5 8.09680 27487 299.20
299.34 1.000576 4.081536E-3 0.697908  3.256E-5 8.09701 27517 299.15
299.35 1.000576 3.719772E-3 0.697736  3.259E-5 8.09641 27547 299.20
299.34 1.000576 4.409919E-3 0.697882  3.256E-5 8.09673 27576 299.15
299.34 1.000576 3.586242E-3 0.697854  3.239E-5 8.09704 27606 299.15
299.33 1.000576 3.974933E-3 0.697809  3.252E-5 8.09733 27636 299.20
299.32 1.000576 4.171425E-3 0.697783  3.247E-5 8.09646 27665 299.15
299.32 1.000576 3.609263E-3 0.697660  3.255E-5 8.09825 27695 299.10
299.32 1.000576 4.067593E-3 0.697550  3.256E-5 8.09623 27725 299.20
299.32 1.000576 4.113165E-3 0.697689  3.244E-5 8.09669 27755 299.15
299.32 1.000576 4.137633E-3 0.697768  3.249E-5 8.09599 27784 299.15
299.32 1.000576 3.836347E-3 0.697689  3.269E-5 8.09673 27814 299.20
299.31 1.000576 4.650629E-3 0.697653  3.256E-5 8.09564 27844 299.10
299.31 1.000576 3.747882E-3 0.697579  3.262E-5 8.09653 27873 299.15
299.32 1.000576 3.890582E-3 0.697677  3.251E-5 8.09686 27903 299.15
299.33 1.000576 3.491469E-3 0.697534  3.253E-5 8.09716 27933 299.15
299.33 1.000576 4.126333E-3 0.698007  3.245E-5 8.09734 27962 299.20
299.32 1.000576 4.052848E-3 0.697642  3.266E-5 8.09695 27992 299.20
299.31 1.000576 3.976129E-3 0.697882  3.250E-5 8.09728 28022 299.10
299.31 1.000576 3.837309E-3 0.697873  3.252E-5 8.09590 28052 299.15
299.31 1.000576 3.936930E-3 0.697755  3.241E-5 8.09636 28081 299.15
299.31 1.000576 4.660150E-3 0.698066  3.245E-5 8.09542 28111 299.15
299.31 1.000576 3.676363E-3 0.698003  3.262E-5 8.09718 28141 299.15
299.31 1.000576 3.938940E-3 0.697937  3.254E-5 8.09640 28170 299.10
299.31 1.000576 4.036688E-3 0.698289  3.245E-5 8.09582 28200 299.10
299.30 1.000576 3.789476E-3 0.697948  3.246E-5 8.09622 28230 299.10
299.31 1.000576 3.528593E-3 0.698046  3.252E-5 8.09613 28259 299.15
299.31 1.000576 3.597393E-3 0.697855  3.248E-5 8.09666 28289 299.20
299.31 1.000576 3.885070E-3 0.698102  3.256E-5 8.09626 28319 299.10
299.31 1.000576 4.042158E-3 0.698129  3.264E-5 8.09625 28349 299.10
299.32 1.000576 4.193489E-3 0.697929  3.257E-5 8.09717 28378 299.10
299.31 1.000576 3.876089E-3 0.698167  3.246E-5 8.09548 28408 299.10
299.31 1.000576 3.967078E-3 0.698161  3.268E-5 8.09678 28438 299.10
299.29 1.000576 4.305376E-3 0.698142  3.259E-5 8.09719 28467 299.10
299.32 1.000576 3.888789E-3 0.698219  3.255E-5 8.09577 28497 299.15
299.32 1.000576 3.594536E-3 0.698166  3.254E-5 8.09679 28527 299.10
299.32 1.000576 3.963781E-3 0.698007  3.256E-5 8.09661 28556 299.10
299.33 1.000576 3.909861E-3 0.698080  3.256E-5 8.09551 28586 299.15
299.32 1.000576 3.775964E-3 0.697908  3.248E-5 8.09719 28616 299.10
299.29 1.000576 3.819674E-3 0.698215  3.254E-5 8.09692 28646 299.10
299.32 1.000576 3.943506E-3 0.697829  3.263E-5 8.09603 28675 299.10
299.31 1.000576 3.843999E-3 0.697982  3.261E-5 8.09685 28705 299.10
299.31 1.000576 3.669982E-3 0.697670  3.244E-5 8.09654 28735 299.10
299.31 1.000576 3.651340E-3 0.697983  3.248E-5 8.09699 28764 299.10
299.31 1.000576 3.919114E-3 0.698146  3.242E-5 8.09649 28794 299.10
299.31 1.000576 3.816339E-3 0.698139  3.241E-5 8.09572 28824 299.10
299.32 1.000576 4.247567E-3 0.697885  3.257E-5 8.09691 28853 299.15
299.31 1.000576 3.826533E-3 0.697897  3.248E-5 8.09688 28883 299.15
299.31 1.000576 4.087309E-3 0.697873  3.248E-5 8.09661 28913 299.10
299.31 1.000576 3.591965E-3 0.697939  3.262E-5 8.09685 28943 299.10
299.31 1.000576 3.980209E-3 0.698059  3.257E-5 8.09703 28972 299.10
299.30 1.000576 3.601269E-3 0.698113  3.251E-5 8.09711 29002 299.10
299.28 1.000576 3.911237E-3 0.698080  3.248E-5 8.09653 29032 299.10
299.27 1.000576 3.776164E-3 0.697860  3.263E-5 8.09631 29061 299.10
299.26 1.000576 4.235247E-3 0.697922  3.248E-5 8.09775 29091 299.10
299.29 1.000576 3.515929E-3 0.698055  3.247E-5 8.09663 29121 299.10
299.28 1.000576 3.831005E-3 0.697813  3.240E-5 8.09660 29150 299.10
299.28 1.000576 3.985085E-3 0.697925  3.262E-5 8.09708 29180 299.10
299.28 1.000576 4.028390E-3 0.697840  3.260E-5 8.09775 29210 299.10
299.28 1.000576 3.696919E-3 0.697953  3.249E-5 8.09873 29240 299.10
299.29 1.000576 4.031614E-3 0.697743  3.247E-5 8.09833 29269 299.10
299.28 1.000576 3.813551E-3 0.697790  3.237E-5 8.09749 29299 299.10
299.22 1.000576 4.167747E-3 0.697955  3.272E-5 8.09687 29329 299.10
299.28 1.000576 4.126694E-3 0.697792  3.246E-5 8.09743 29358 299.10
299.24 1.000576 4.162422E-3 0.698103  3.258E-5 8.09681 29388 299.10
299.28 1.000576 3.980203E-3 0.697832  3.244E-5 8.09662 29418 299.10
299.28 1.000576 3.554158E-3 0.697465  3.257E-5 8.09887 29447 299.10
299.28 1.000576 3.671830E-3 0.697662  3.259E-5 8.09822 29477 299.10
299.28 1.000576 3.969170E-3 0.697908  3.246E-5 8.09801 29507 299.10
299.28 1.000576 3.708915E-3 0.698026  3.263E-5 8.09692 29537 299.10
299.27 1.000576 3.410193E-3 0.697778  3.249E-5 8.09797 29566 299.10
299.27 1.000576 4.012425E-3 0.697929  3.255E-5 8.09579 29596 299.10
299.27 1.000576 3.443989E-3 0.698061  3.261E-5 8.09818 29626 299.10
299.25 1.000576 3.945559E-3 0.698113  3.246E-5 8.09773 29655 299.15
299.26 1.000576 3.777356E-3 0.697757  3.254E-5 8.09786 29685 299.10
299.25 1.000576 3.768729E-3 0.697813  3.250E-5 8.09805 29715 299.10
299.26 1.000576 3.455337E-3 0.698005  3.261E-5 8.09704 29744 299.10
299.26 1.000576 4.038806E-3 0.697915  3.258E-5 8.09798 29774 299.10
299.26 1.000576 3.721039E-3 0.697889  3.259E-5 8.09672 29804 299.10
299.27 1.000576 3.883345E-3 0.698111  3.254E-5 8.09768 29834 299.10
299.27 1.000576 4.321044E-3 0.697967  3.254E-5 8.09856 29863 299.10
299.23 1.000576 3.991132E-3 0.697928  3.256E-5 8.09804 29893 299.10
299.23 1.000576 4.642203E-3 0.697819  3.255E-5 8.09761 29923 299.10
299.26 1.000576 4.456615E-3 0.697825  3.262E-5 8.09802 29952 299.10
299.26 1.000576 3.899915E-3 0.697537  3.261E-5 8.09691 29982 299.10
299.26 1.000576 3.805596E-3 0.697744  3.263E-5 8.09889 30012 299.10
299.26 1.000576 3.783531E-3 0.697748  3.258E-5 8.09705 30041 299.10
299.26 1.000576 3.654122E-3 0.697898  3.251E-5 8.09740 30071 299.10
299.25 1.000576 4.232688E-3 0.697841  3.252E-5 8.09630 30101 299.10
299.24 1.000576 4.507860E-3 0.697688  3.263E-5 8.09752 30131 299.10
299.25 1.000576 3.778723E-3 0.697732  3.261E-5 8.09700 30160 299.10
299.26 1.000576 4.028895E-3 0.697861  3.247E-5 8.09709 30190 299.10
299.20 1.000576 3.895292E-3 0.697537  3.258E-5 8.09762 30220 299.10
299.26 1.000576 3.721591E-3 0.697507  3.245E-5 8.09682 30249 299.10
299.26 1.000576 3.857717E-3 0.697602  3.264E-5 8.09774 30279 299.10
299.26 1.000576 3.925245E-3 0.697557  3.253E-5 8.09717 30309 299.10
299.27 1.000576 3.825868E-3 0.697655  3.266E-5 8.09628 30338 299.10
299.25 1.000576 3.664204E-3 0.697704  3.247E-5 8.09709 30368 299.10
299.26 1.000576 3.921247E-3 0.697649  3.257E-5 8.09636 30398 299.10
299.25 1.000576 3.847072E-3 0.697447  3.268E-5 8.09805 30428 299.10
299.25 1.000576 3.948129E-3 0.697863  3.262E-5 8.09823 30457 299.10
299.24 1.000576 3.615981E-3 0.697732  3.253E-5 8.09714 30487 299.10
299.23 1.000576 4.239211E-3 0.697737  3.264E-5 8.09851 30517 299.10
299.23 1.000576 3.821696E-3 0.697581  3.267E-5 8.09820 30546 299.10
299.24 1.000576 4.190551E-3 0.697799  3.274E-5 8.09784 30576 299.10
299.24 1.000576 3.767593E-3 0.697272  3.258E-5 8.09660 30606 299.10
299.24 1.000576 3.831138E-3 0.697367  3.264E-5 8.09683 30635 299.10
299.24 1.000576 3.775279E-3 0.697344  3.265E-5 8.09868 30665 299.10
299.23 1.000576 3.771803E-3 0.697514  3.258E-5 8.09661 30695 299.05
299.24 1.000576 3.906278E-3 0.697517  3.250E-5 8.09816 30725 299.10
299.23 1.000576 3.719753E-3 0.697440  3.265E-5 8.09845 30754 299.10
299.24 1.000576 3.961279E-3 0.697330  3.246E-5 8.09641 30784 299.10
299.20 1.000576 3.854259E-3 0.697640  3.262E-5 8.09751 30814 299.10
299.20 1.000576 3.790955E-3 0.697624  3.251E-5 8.09785 30843 299.10
299.23 1.000576 3.774063E-3 0.697595  3.255E-5 8.09819 30873 299.10
299.17 1.000576 3.613115E-3 0.697478  3.253E-5 8.09769 30903 299.10
299.20 1.000576 3.968918E-3 0.697243  3.261E-5 8.09817 30932 299.05
299.20 1.000576 3.869220E-3 0.697384  3.253E-5 8.09706 30962 299.10
299.25 1.000576 3.833262E-3 0.697772  3.248E-5 8.09659 30992 299.10
299.21 1.000576 3.948392E-3 0.697259  3.256E-5 8.09722 31022 299.10
299.21 1.000576 3.714528E-3 0.697640  3.258E-5 8.09707 31051 299.10
299.24 1.000576 3.899670E-3 0.697536  3.252E-5 8.09668 31081 299.10
299.22 1.000576 3.839963E-3 0.697340  3.260E-5 8.09703 31111 299.10
299.24 1.000576 4.129092E-3 0.697703  3.263E-5 8.09795 31140 299.10
299.23 1.000576 3.413046E-3 0.697374  3.259E-5 8.09779 31170 299.10
299.23 1.000576 3.640833E-3 0.697497  3.269E-5 8.09651 31200 299.05
299.23 1.000576 3.823256E-3 0.697433  3.255E-5 8.09627 31229 299.10
299.24 1.000576 3.504436E-3 0.697479  3.252E-5 8.09721 31259 299.10
299.20 1.000576 3.783945E-3 0.697508  3.254E-5 8.09812 31289 299.10
299.20 1.000576 3.731404E-3 0.697453  3.261E-5 8.09718 31319 299.10
299.20 1.000576 3.929681E-3 0.697357  3.253E-5 8.09665 31348 299.05
299.17 1.000576 3.832060E-3 0.697567  3.252E-5 8.09702 31378 299.05
299.17 1.000576 3.723591E-3 0.697275  3.261E-5 8.09723 31408 299.10
299.17 1.000576 3.833005E-3 0.697460  3.258E-5 8.09896 31437 299.10
299.17 1.000576 3.575415E-3 0.697479  3.259E-5 8.09647 31467 299.10
299.17 1.000576 3.522087E-3 0.697393  3.269E-5 8.09743 31497 299.10
299.18 1.000576 3.641442E-3 0.697503  3.256E-5 8.09645 31526 299.10
299.19 1.000576 3.985024E-3 0.697457  3.249E-5 8.09578 31556 299.10
299.20 1.000576 3.550636E-3 0.697791  3.252E-5 8.09706 31586 299.10
299.20 1.000576 3.965275E-3 0.697323  3.253E-5 8.09762 31616 299.10
299.21 1.000576 3.805510E-3 0.697271  3.254E-5 8.09837 31645 299.10
299.20 1.000576 4.159486E-3 0.697599  3.259E-5 8.09688 31675 299.10
299.20 1.000576 3.609542E-3 0.697166  3.249E-5 8.09730 31705 299.10
299.19 1.000576 3.907058E-3 0.697483  3.252E-5 8.09662 31734 299.10
299.19 1.000576 4.108803E-3 0.697479  3.260E-5 8.09674 31764 299.10
299.19 1.000576 4.124102E-3 0.697258  3.252E-5 8.09721 31794 299.10
299.20 1.000576 3.546112E-3 0.697568  3.258E-5 8.09756 31823 299.05
299.19 1.000576 4.143405E-3 0.697565  3.247E-5 8.09716 31853 299.05
299.19 1.000576 3.705477E-3 0.697269  3.262E-5 8.09814 31883 299.10
299.19 1.000576 3.636604E-3 0.697221  3.263E-5 8.09881 31913 299.05
299.20 1.000576 3.715233E-3 0.697279  3.258E-5 8.09760 31942 299.05
299.17 1.000576 4.077583E-3 0.697156  3.260E-5 8.09752 31972 299.05
299.18 1.000576 3.818428E-3 0.697308  3.250E-5 8.09748 32002 299.10
299.19 1.000576 3.866581E-3 0.697445  3.246E-5 8.09732 32031 299.10
299.16 1.000576 4.052570E-3 0.697284  3.271E-5 8.09862 32061 299.10
299.15 1.000576 3.801102E-3 0.697265  3.259E-5 8.09829 32091 299.05
299.15 1.000576 3.784804E-3 0.697670  3.266E-5 8.09679 32120 299.10
299.21 1.000576 3.917143E-3 0.697259  3.249E-5 8.09847 32150 299.10
299.14 1.000576 3.676196E-3 0.697425  3.262E-5 8.09750 32180 299.05
299.17 1.000576 3.719674E-3 0.697233  3.269E-5 8.09793 32210 299.00
299.20 1.000576 3.724513E-3 0.697283  3.248E-5 8.09860 32239 299.05
299.13 1.000576 3.692614E-3 0.697567  3.260E-5 8.09811 32269 299.05
299.14 1.000576 3.690995E-3 0.697467  3.251E-5 8.09745 32299 299.05
299.18 1.000576 3.800408E-3 0.697637  3.250E-5 8.09567 32328 299.10
299.19 1.000576 4.461780E-3 0.697762  3.255E-5 8.09737 32358 299.10
299.18 1.000576 3.733717E-3 0.697600  3.256E-5 8.09633 32388 299.10
299.20 1.000576 3.919841E-3 0.697510  3.262E-5 8.09596 32417 299.10
299.18 1.000576 3.271738E-3 0.697137  3.246E-5 8.09621 32447 299.05
299.15 1.000576 4.207656E-3 0.697536  3.256E-5 8.09615 32477 299.10
299.15 1.000576 3.859835E-3 0.697290  3.270E-5 8.09651 32507 299.10
299.15 1.000576 3.703944E-3 0.697407  3.255E-5 8.09642 32536 299.05
299.15 1.000576 3.735032E-3 0.697388  3.264E-5 8.09753 32566 299.10
299.15 1.000576 3.795896E-3 0.697227  3.271E-5 8.09744 32596 299.05
299.15 1.000576 3.757830E-3 0.697417  3.256E-5 8.09642 32625 299.00
299.16 1.000576 3.544719E-3 0.697518  3.272E-5 8.09815 32655 299.00
299.16 1.000576 3.391357E-3 0.697358  3.251E-5 8.09694 32685 299.10
299.16 1.000576 3.457016E-3 0.697464  3.251E-5 8.09834 32714 299.05
299.15 1.000576 3.880539E-3 0.697437  3.257E-5 8.09793 32744 299.00
299.16 1.000576 3.976753E-3 0.697518  3.264E-5 8.09699 32774 299.05
299.16 1.000576 3.898880E-3 0.697460  3.262E-5 8.09655 32804 299.00
299.17 1.000576 3.537166E-3 0.697359  3.250E-5 8.09660 32833 299.10
299.17 1.000576 3.964385E-3 0.697731  3.264E-5 8.09711 32863 299.05
299.17 1.000576 3.778483E-3 0.697768  3.259E-5 8.09668 32893 299.05
299.17 1.000576 3.976044E-3 0.697820  3.249E-5 8.09703 32922 299.10
299.16 1.000576 3.842478E-3 0.697599  3.252E-5 8.09756 32952 299.00
299.16 1.000576 3.786857E-3 0.697352  3.245E-5 8.09716 32982 299.05
299.16 1.000576 3.840553E-3 0.697644  3.249E-5 8.09629 33011 299.00
299.16 1.000576 3.884737E-3 0.697698  3.262E-5 8.09662 33041 299.00
299.16 1.000576 4.059100E-3 0.697482  3.253E-5 8.09617 33071 299.05
299.16 1.000576 4.218311E-3 0.697336  3.253E-5 8.09682 33101 299.05
299.16 1.000576 3.939043E-3 0.697343  3.268E-5 8.09768 33130 299.05
299.16 1.000576 3.852452E-3 0.697358  3.264E-5 8.09783 33160 299.05
299.16 1.000576 3.922270E-3 0.697499  3.247E-5 8.09712 33190 299.00
299.17 1.000576 3.852075E-3 0.697540  3.246E-5 8.09644 33219 299.05
299.18 1.000576 3.942294E-3 0.697472  3.246E-5 8.09653 33249 299.05
299.18 1.000576 3.632458E-3 0.697513  3.264E-5 8.09591 33279 299.05
299.18 1.000576 3.757342E-3 0.697156  3.252E-5 8.09746 33308 299.05
299.17 1.000576 3.613970E-3 0.697593  3.256E-5 8.09676 33338 299.00
299.17 1.000576 3.680144E-3 0.697314  3.256E-5 8.09682 33368 299.00
299.16 1.000576 4.138243E-3 0.697465  3.257E-5 8.09621 33398 299.00
299.16 1.000576 3.921727E-3 0.697348  3.248E-5 8.09795 33427 299.00
299.16 1.000576 3.832504E-3 0.697540  3.244E-5 8.09715 33457 299.00
299.16 1.000576 4.293268E-3 0.697600  3.265E-5 8.09677 33487 299.00
299.17 1.000576 3.727621E-3 0.697574  3.267E-5 8.09730 33516 299.00
299.15 1.000576 3.721371E-3 0.697369  3.264E-5 8.09769 33546 299.00
299.16 1.000576 4.297340E-3 0.697282  3.256E-5 8.09662 33576 299.00
299.15 1.000576 3.890622E-3 0.697487  3.262E-5 8.09754 33605 299.00
299.15 1.000576 3.639818E-3 0.697479  3.262E-5 8.09711 33635 299.00
299.16 1.000576 3.895628E-3 0.697493  3.256E-5 8.09755 33665 299.00
299.16 1.000576 3.743103E-3 0.697535  3.251E-5 8.09744 33695 299.00
299.16 1.000576 3.911530E-3 0.697579  3.263E-5 8.09625 33724 299.00
299.17 1.000576 4.201677E-3 0.697488  3.253E-5 8.09729 33754 299.00
299.16 1.000576 4.225120E-3 0.697556  3.260E-5 8.09684 33784 299.00
299.16 1.000576 3.744335E-3 0.697701  3.253E-5 8.09824 33813 299.00
299.15 1.000576 3.823290E-3 0.697583  3.252E-5 8.09742 33843 299.00
299.15 1.000576 4.179021E-3 0.697784  3.256E-5 8.09669 33873 299.00
299.14 1.000576 3.643631E-3 0.697872  3.245E-5 8.09731 33902 299.00
299.14 1.000576 3.739239E-3 0.697517  3.263E-5 8.09744 33932 299.00
299.13 1.000576 3.678396E-3 0.697485  3.262E-5 8.09787 33962 299.00
299.13 1.000576 4.056679E-3 0.697366  3.262E-5 8.09718 33992 299.00
299.14 1.000576 3.789456E-3 0.697371  3.246E-5 8.09764 34021 299.00
299.14 1.000576 3.950407E-3 0.697197  3.255E-5 8.09840 34051 299.00
299.13 1.000576 3.763765E-3 0.697553  3.259E-5 8.09795 34081 299.00
299.13 1.000576 3.547692E-3 0.697618  3.251E-5 8.09612 34110 299.00
299.13 1.000576 3.381355E-3 0.697253  3.256E-5 8.09747 34140 299.00
299.13 1.000576 3.241043E-3 0.697471  3.249E-5 8.09608 34170 299.00
299.13 1.000576 3.941501E-3 0.697486  3.254E-5 8.09720 34199 299.00
299.13 1.000576 3.691960E-3 0.697403  3.252E-5 8.09670 34229 299.00
299.13 1.000576 4.079776E-3 0.697953  3.241E-5 8.09646 34259 299.00
299.13 1.000576 3.716854E-3 0.697119  3.250E-5 8.09828 34289 299.00
299.13 1.000576 4.215005E-3 0.697394  3.248E-5 8.09664 34318 299.00
299.10 1.000576 3.908840E-3 0.697454  3.248E-5 8.09683 34348 299.00
299.10 1.000576 3.767283E-3 0.697188  3.260E-5 8.09660 34378 299.00
299.13 1.000576 3.417603E-3 0.697193  3.256E-5 8.09620 34407 299.00
299.13 1.000576 3.430929E-3 0.697366  3.249E-5 8.09571 34437 299.00
299.12 1.000576 3.756206E-3 0.697206  3.262E-5 8.09792 34467 299.00
299.13 1.000576 3.972841E-3 0.697368  3.256E-5 8.09697 34496 299.00
299.12 1.000576 3.487660E-3 0.697423  3.238E-5 8.09669 34526 299.00
299.12 1.000576 3.975127E-3 0.697252  3.262E-5 8.09720 34556 299.00
299.12 1.000576 3.872776E-3 0.697147  3.259E-5 8.09736 34586 299.00
299.11 1.000576 3.938691E-3 0.697458  3.253E-5 8.09696 34615 299.00
299.12 1.000576 3.851355E-3 0.697111  3.248E-5 8.09687 34645 299.00
299.11 1.000576 3.835067E-3 0.697366  3.264E-5 8.09731 34675 299.00
299.12 1.000576 3.904207E-3 0.697425  3.258E-5 8.09685 34704 299.00
299.11 1.000576 3.712226E-3 0.697482  3.260E-5 8.09571 34734 299.00
299.12 1.000576 3.876135E-3 0.697356  3.250E-5 8.09682 34764 299.00
299.11 1.000576 3.615797E-3 0.697720  3.245E-5 8.09740 34793 299.00
299.10 1.000576 3.155524E-3 0.697461  3.258E-5 8.09655 34823 299.00
299.10 1.000576 3.729769E-3 0.697470  3.259E-5 8.09712 34853 299.00
299.10 1.000576 3.794489E-3 0.697442  3.249E-5 8.09713 34883 299.00
299.09 1.000576 3.572352E-3 0.697433  3.255E-5 8.09657 34912 299.00
299.10 1.000576 3.679365E-3 0.697440  3.256E-5 8.09660 34942 299.00
299.08 1.000576 3.950240E-3 0.697448  3.271E-5 8.09819 34972 299.00
299.09 1.000576 3.809596E-3 0.697478  3.260E-5 8.09722 35001 299.00
299.08 1.000576 3.760159E-3 0.697412  3.248E-5 8.09780 35031 299.00
299.08 1.000576 3.793577E-3 0.697343  3.248E-5 8.09677 35061 299.00
299.08 1.000576 3.619498E-3 0.697504  3.259E-5 8.09732 35090 299.00
299.08 1.000576 3.729125E-3 0.697409  3.244E-5 8.09656 35120 299.00
299.07 1.000576 3.846560E-3 0.697462  3.263E-5 8.09707 35150 299.00
299.07 1.000576 3.846849E-3 0.697463  3.259E-5 8.09688 35180 299.00
299.10 1.000576 3.756176E-3 0.697589  3.258E-5 8.09622 35209 299.00
299.06 1.000576 3.972161E-3 0.697133  3.254E-5 8.09728 35239 299.00
299.05 1.000576 3.771818E-3 0.697250  3.256E-5 8.09690 35269 299.00
299.06 1.000576 3.859591E-3 0.697313  3.265E-5 8.09715 35298 299.00
299.09 1.000576 3.821148E-3 0.697244  3.256E-5 8.09722 35328 299.00
299.06 1.000576 3.386311E-3 0.697068  3.263E-5 8.09860 35358 299.00
299.11 1.000576 3.698648E-3 0.697141  3.268E-5 8.09825 35387 299.00
299.10 1.000576 3.721375E-3 0.697504  3.259E-5 8.09710 35417 299.00
299.10 1.000576 4.217643E-3 0.697280  3.261E-5 8.09701 35447 299.00
299.09 1.000576 3.965146E-3 0.697208  3.262E-5 8.09783 35477 299.00
299.09 1.000576 3.721625E-3 0.697224  3.265E-5 8.09808 35506 299.00
299.09 1.000576 4.077462E-3 0.696985  3.257E-5 8.09696 35536 299.00
299.08 1.000576 3.899191E-3 0.697007  3.257E-5 8.09686 35566 299.00
299.09 1.000576 3.797817E-3 0.697098  3.258E-5 8.09581 35595 299.00
299.08 1.000576 3.734421E-3 0.697114  3.267E-5 8.09745 35625 299.00
299.08 1.000576 3.806046E-3 0.697474  3.248E-5 8.09736 35655 299.00
299.08 1.000576 3.394300E-3 0.697005  3.265E-5 8.09562 35684 299.00
299.07 1.000576 3.061433E-3 0.697475  3.257E-5 8.09744 35714 298.95
299.07 1.000576 3.754061E-3 0.697165  3.269E-5 8.09803 35744 299.00
299.07 1.000576 3.642032E-3 0.697321  3.258E-5 8.09700 35774 299.00
299.07 1.000576 3.792450E-3 0.697191  3.255E-5 8.09689 35803 299.00
299.07 1.000576 3.422867E-3 0.697140  3.272E-5 8.09670 35833 299.00
299.08 1.000576 3.941548E-3 0.697099  3.252E-5 8.09818 35863 299.00
299.06 1.000576 3.740260E-3 0.697268  3.256E-5 8.09687 35892 299.00
299.06 1.000576 3.841950E-3 0.697286  3.261E-5 8.09711 35922 299.00
299.06 1.000576 3.655569E-3 0.696983  3.250E-5 8.09796 35952 299.00
299.07 1.000576 3.807042E-3 0.697208  3.267E-5 8.09785 35981 299.00
299.08 1.000576 3.634959E-3 0.697139  3.268E-5 8.09698 36011 299.00
299.09 1.000576 3.627068E-3 0.697400  3.258E-5 8.09766 36041 299.00
299.06 1.000576 4.026949E-3 0.697069  3.256E-5 8.09798 36071 299.00
299.06 1.000576 4.642851E-3 0.696901  3.262E-5 8.09714 36100 299.00
299.06 1.000576 3.439153E-3 0.697031  3.254E-5 8.09772 36130 299.00
299.05 1.000576 3.850160E-3 0.697246  3.265E-5 8.09770 36160 299.00
299.08 1.000576 3.829947E-3 0.697178  3.265E-5 8.09646 36189 299.00
299.05 1.000576 3.755000E-3 0.697290  3.258E-5 8.09718 36219 298.95
299.05 1.000576 3.667889E-3 0.697318  3.256E-5 8.09764 36249 299.00
299.05 1.000576 3.683267E-3 0.697264  3.258E-5 8.09725 36278 299.00
299.06 1.000576 3.811358E-3 0.697079  3.269E-5 8.09713 36308 299.00
299.06 1.000576 3.745666E-3 0.697315  3.250E-5 8.09753 36338 299.00
299.07 1.000576 3.906335E-3 0.697242  3.265E-5 8.09765 36368 299.00
299.06 1.000576 3.818593E-3 0.697054  3.263E-5 8.09808 36397 299.00
299.12 1.000576 3.707792E-3 0.697105  3.253E-5 8.09702 36427 299.00
299.12 1.000576 3.841305E-3 0.697030  3.261E-5 8.09737 36457 299.00
299.08 1.000576 3.240839E-3 0.696945  3.261E-5 8.09707 36486 299.00
299.11 1.000576 3.699146E-3 0.697129  3.259E-5 8.09773 36516 299.00
299.08 1.000576 3.440505E-3 0.696806  3.259E-5 8.09705 36546 299.00
299.10 1.000576 3.758904E-3 0.697068  3.265E-5 8.09676 36575 299.00
299.10 1.000576 3.837154E-3 0.697072  3.244E-5 8.09630 36605 299.00
299.09 1.000576 3.645091E-3 0.697003  3.254E-5 8.09754 36635 299.00
299.09 1.000576 4.059714E-3 0.697090  3.258E-5 8.09598 36665 299.00
299.09 1.000576 3.700711E-3 0.697146  3.249E-5 8.09587 36694 299.00
299.08 1.000576 3.565639E-3 0.697268  3.268E-5 8.09770 36724 299.00
299.08 1.000576 3.487248E-3 0.697193  3.254E-5 8.09723 36754 299.00
299.08 1.000576 3.507510E-3 0.697162  3.253E-5 8.09701 36783 299.00
299.08 1.000576 3.591340E-3 0.697220  3.253E-5 8.09803 36813 299.00
299.08 1.000576 3.825558E-3 0.697206  3.266E-5 8.09719 36843 299.00
299.07 1.000576 4.082603E-3 0.697119  3.261E-5 8.09675 36872 299.00
299.08 1.000576 3.855949E-3 0.697034  3.255E-5 8.09728 36902 299.00
299.08 1.000576 3.845779E-3 0.697056  3.254E-5 8.09632 36932 299.00
299.08 1.000576 3.461799E-3 0.697054  3.248E-5 8.09749 36962 299.00
299.07 1.000576 3.845828E-3 0.697097  3.271E-5 8.09705 36991 299.00
299.07 1.000576 3.686142E-3 0.697130  3.253E-5 8.09538 37021 299.00
299.07 1.000576 3.908366E-3 0.696875  3.267E-5 8.09640 37051 298.95
299.07 1.000576 3.840499E-3 0.697026  3.253E-5 8.09675 37080 299.00
299.07 1.000576 3.732397E-3 0.697174  3.247E-5 8.09641 37110 299.00
299.07 1.000576 3.811766E-3 0.697186  3.256E-5 8.09698 37140 299.00
299.08 1.000576 3.744547E-3 0.697089  3.260E-5 8.09653 37169 299.00
299.08 1.000576 3.809572E-3 0.697295  3.252E-5 8.09760 37199 299.00
299.07 1.000576 3.817689E-3 0.697057  3.260E-5 8.09718 37229 299.00
299.08 1.000576 3.837267E-3 0.697125  3.258E-5 8.09691 37259 299.00
299.07 1.000576 3.614211E-3 0.696911  3.260E-5 8.09709 37288 299.00
299.07 1.000576 3.838768E-3 0.697355  3.254E-5 8.09781 37318 299.00
299.06 1.000576 4.094489E-3 0.696903  3.271E-5 8.09793 37348 299.00
299.06 1.000576 3.881467E-3 0.697153  3.258E-5 8.09686 37377 299.00
299.07 1.000576 3.166368E-3 0.697116  3.255E-5 8.09749 37407 299.00
299.07 1.000576 3.576578E-3 0.696960  3.257E-5 8.09744 37437 299.00
299.06 1.000576 3.738178E-3 0.697221  3.244E-5 8.09646 37466 299.00
299.06 1.000576 3.750044E-3 0.697211  3.252E-5 8.09618 37496 299.00
299.06 1.000576 3.874730E-3 0.697226  3.247E-5 8.09549 37526 299.00
299.06 1.000576 3.814916E-3 0.697316  3.260E-5 8.09675 37556 299.00
299.06 1.000576 3.868141E-3 0.697393  3.256E-5 8.09685 37585 299.00
299.06 1.000576 3.855353E-3 0.697020  3.272E-5 8.09667 37615 299.00
299.05 1.000576 3.744587E-3 0.697229  3.255E-5 8.09760 37645 299.00
299.08 1.000576 3.763315E-3 0.697261  3.266E-5 8.09710 37674 299.00
299.05 1.000576 3.879020E-3 0.697243  3.250E-5 8.09636 37704 299.00
299.07 1.000576 3.972573E-3 0.697028  3.254E-5 8.09717 37734 299.00
299.07 1.000576 3.706394E-3 0.697203  3.254E-5 8.09657 37763 298.95
299.06 1.000576 3.595083E-3 0.697325  3.247E-5 8.09717 37793 299.00
299.06 1.000576 3.165948E-3 0.697593  3.263E-5 8.09723 37823 299.00
299.06 1.000576 3.423212E-3 0.697133  3.264E-5 8.09688 37853 299.00
299.03 1.000576 3.919130E-3 0.697056  3.258E-5 8.09568 37882 299.00
299.04 1.000576 3.585714E-3 0.697100  3.264E-5 8.09643 37912 298.95
299.07 1.000576 3.748300E-3 0.697141  3.257E-5 8.09713 37942 299.00
299.03 1.000576 3.900903E-3 0.697396  3.257E-5 8.09709 37971 299.00
299.04 1.000576 3.776537E-3 0.697164  3.252E-5 8.09721 38001 299.00
299.04 1.000576 3.770128E-3 0.697174  3.264E-5 8.09647 38031 299.00
299.04 1.000576 3.656721E-3 0.697063  3.249E-5 8.09681 38060 298.95
299.05 1.000576 3.652469E-3 0.697248  3.259E-5 8.09802 38090 298.95
299.06 1.000576 3.635437E-3 0.697256  3.262E-5 8.09685 38120 299.00
299.07 1.000576 3.781569E-3 0.697267  3.247E-5 8.09672 38150 299.00
299.06 1.000576 3.709711E-3 0.697377  3.261E-5 8.09725 38179 299.00
299.07 1.000576 3.752002E-3 0.697320  3.261E-5 8.09716 38209 299.00
299.07 1.000576 3.852719E-3 0.696981  3.261E-5 8.09773 38239 298.95
299.07 1.000576 3.653985E-3 0.697100  3.259E-5 8.09588 38268 298.95
299.07 1.000576 3.873540E-3 0.697053  3.261E-5 8.09576 38298 299.00
299.07 1.000576 3.800030E-3 0.697266  3.250E-5 8.09678 38328 298.95
299.07 1.000576 3.664076E-3 0.697093  3.273E-5 8.09729 38357 299.00
299.07 1.000576 3.525875E-3 0.697250  3.257E-5 8.09803 38387 298.95
299.07 1.000576 3.716686E-3 0.697157  3.244E-5 8.09653 38417 298.95
299.07 1.000576 3.756097E-3 0.697157  3.262E-5 8.09757 38447 298.90
299.08 1.000576 3.620567E-3 0.697222  3.250E-5 8.09695 38476 299.00
299.08 1.000576 3.474060E-3 0.697065  3.261E-5 8.09701 38506 298.95
299.08 1.000576 3.308175E-3 0.697245  3.263E-5 8.09667 38536 298.95
299.08 1.000576 3.653797E-3 0.697174  3.258E-5 8.09793 38565 298.95
299.08 1.000576 3.716315E-3 0.697058  3.271E-5 8.09726 38595 299.00
299.08 1.000576 3.647926E-3 0.697184  3.248E-5 8.09653 38625 299.00
299.09 1.000576 3.697434E-3 0.697144  3.267E-5 8.09668 38654 298.95
299.08 1.000576 3.732182E-3 0.697320  3.253E-5 8.09651 38684 299.00
299.08 1.000576 4.086468E-3 0.697227  3.255E-5 8.09669 38714 298.95
299.08 1.000576 3.750825E-3 0.697231  3.255E-5 8.09682 38744 298.95
299.08 1.000576 4.120106E-3 0.697254  3.258E-5 8.09646 38773 299.00
299.09 1.000576 3.537270E-3 0.697069  3.251E-5 8.09652 38803 299.00
299.08 1.000576 3.600422E-3 0.697108  3.258E-5 8.09688 38833 299.00
299.08 1.000576 3.928567E-3 0.697323  3.263E-5 8.09734 38862 298.90
299.08 1.000576 3.513135E-3 0.697315  3.254E-5 8.09762 38892 298.95
299.08 1.000576 3.435637E-3 0.697488  3.260E-5 8.09666 38922 298.95
299.08 1.000576 3.805433E-3 0.696796  3.259E-5 8.09673 38951 298.90
299.08 1.000576 3.320240E-3 0.697320  3.262E-5 8.09691 38981 298.90
299.07 1.000576 4.181710E-3 0.697365  3.260E-5 8.09668 39011 298.90
299.08 1.000576 3.659450E-3 0.697280  3.258E-5 8.09808 39041 298.90
299.08 1.000576 3.661985E-3 0.697068  3.257E-5 8.09779 39070 298.90
299.08 1.000576 3.551651E-3 0.696964  3.266E-5 8.09629 39100 298.95
299.08 1.000576 3.761280E-3 0.696970  3.260E-5 8.09708 39130 298.90
299.07 1.000576 3.922332E-3 0.697224  3.250E-5 8.09745 39159 298.90
299.05 1.000576 3.900373E-3 0.697214  3.258E-5 8.09740 39189 298.90
299.05 1.000576 3.652605E-3 0.697101  3.257E-5 8.09718 39219 298.90
299.09 1.000576 3.824236E-3 0.697156  3.261E-5 8.09726 39248 298.90
299.03 1.000576 4.080659E-3 0.697228  3.262E-5 8.09748 39278 298.90
299.04 1.000576 3.515705E-3 0.697299  3.256E-5 8.09763 39308 298.90
299.04 1.000576 3.910586E-3 0.697343  3.262E-5 8.09766 39338 298.90
299.04 1.000576 3.660164E-3 0.697196  3.247E-5 8.09620 39367 298.90
299.05 1.000576 3.701323E-3 0.697448  3.256E-5 8.09680 39397 298.90
299.06 1.000576 3.779848E-3 0.697270  3.261E-5 8.09798 39427 298.90
299.07 1.000576 3.911718E-3 0.697225  3.259E-5 8.09692 39456 298.95
299.08 1.000576 3.576616E-3 0.697367  3.248E-5 8.09792 39486 299.00
299.05 1.000576 3.436973E-3 0.697005  3.264E-5 8.09754 39516 298.90
299.08 1.000576 3.709975E-3 0.697423  3.259E-5 8.09694 39545 298.95
299.08 1.000576 3.678235E-3 0.697354  3.263E-5 8.09631 39575 298.90
299.07 1.000576 3.765834E-3 0.697260  3.257E-5 8.09782 39605 298.90
299.03 1.000576 3.700930E-3 0.696892  3.267E-5 8.09783 39635 298.90
299.07 1.000576 3.468068E-3 0.697238  3.258E-5 8.09737 39664 298.90
299.06 1.000576 4.000089E-3 0.697269  3.271E-5 8.09752 39694 298.90
299.06 1.000576 3.800011E-3 0.697266  3.251E-5 8.09739 39724 298.90
299.04 1.000576 3.738738E-3 0.697016  3.259E-5 8.09729 39753 298.90
299.07 1.000576 4.037522E-3 0.697271  3.263E-5 8.09626 39783 298.90
299.04 1.000576 3.895798E-3 0.697291  3.254E-5 8.09683 39813 298.90
299.07 1.000576 4.006286E-3 0.697209  3.260E-5 8.09734 39842 298.90
299.04 1.000576 3.932740E-3 0.697242  3.254E-5 8.09786 39872 298.90
299.05 1.000576 3.231780E-3 0.697213  3.255E-5 8.09585 39902 298.90
299.01 1.000576 3.604255E-3 0.697335  3.259E-5 8.09656 39932 298.90
299.05 1.000576 3.800907E-3 0.697354  3.250E-5 8.09854 39961 298.90
299.02 1.000576 3.846485E-3 0.697282  3.256E-5 8.09771 39991 298.90
299.03 1.000576 3.749349E-3 0.697400  3.258E-5 8.09840 40021 298.90
299.03 1.000576 3.721303E-3 0.697347  3.269E-5 8.09749 40050 298.90
299.03 1.000576 3.626373E-3 0.697434  3.255E-5 8.09708 40080 298.90
299.03 1.000576 3.790785E-3 0.697267  3.260E-5 8.09890 40110 298.90
299.03 1.000576 3.769141E-3 0.697545  3.243E-5 8.09874 40139 298.90
299.02 1.000576 3.126744E-3 0.697166  3.261E-5 8.09775 40169 298.90
299.02 1.000576 3.764466E-3 0.697427  3.253E-5 8.09701 40199 298.90
299.03 1.000576 3.337868E-3 0.697381  3.260E-5 8.09711 40229 298.90
299.03 1.000576 3.750788E-3 0.697434  3.259E-5 8.09738 40258 298.90
299.03 1.000576 3.658029E-3 0.697212  3.262E-5 8.09700 40288 298.90
299.03 1.000576 4.301281E-3 0.697308  3.256E-5 8.09763 40318 298.90
299.02 1.000576 3.374444E-3 0.697448  3.260E-5 8.09683 40347 298.90
299.02 1.000576 3.869706E-3 0.697409  3.251E-5 8.09660 40377 298.90
299.02 1.000576 3.666814E-3 0.697415  3.253E-5 8.09832 40407 298.90
299.02 1.000576 3.483152E-3 0.697274  3.261E-5 8.09708 40436 298.90
299.03 1.000576 3.432743E-3 0.697437  3.253E-5 8.09763 40466 298.90
299.04 1.000576 3.245107E-3 0.697373  3.252E-5 8.09708 40496 298.90
299.04 1.000576 3.734267E-3 0.697353  3.257E-5 8.09719 40526 298.90
299.05 1.000576 3.806124E-3 0.697270  3.261E-5 8.09708 40555 298.90
299.05 1.000576 3.732131E-3 0.697479  3.262E-5 8.09790 40585 298.90
299.05 1.000576 3.504069E-3 0.697468  3.261E-5 8.09849 40615 298.90
298.99 1.000576 3.675610E-3 0.697646  3.251E-5 8.09799 40644 298.90
299.06 1.000576 3.736125E-3 0.697523  3.258E-5 8.09772 40674 298.90
299.06 1.000576 3.301083E-3 0.697305  3.239E-5 8.09799 40704 298.90
299.06 1.000576 3.549134E-3 0.697317  3.261E-5 8.09726 40733 298.90
299.04 1.000576 3.712730E-3 0.697599  3.257E-5 8.09835 40763 298.90
299.04 1.000576 3.875886E-3 0.697364  3.264E-5 8.09821 40793 298.90
299.04 1.000576 3.638554E-3 0.697694  3.251E-5 8.09664 40823 298.90
299.05 1.000576 3.277234E-3 0.697499  3.259E-5 8.09680 40852 298.90
299.04 1.000576 3.576419E-3 0.697403  3.255E-5 8.09829 40882 298.90
299.04 1.000576 3.370657E-3 0.697503  3.262E-5 8.09752 40912 298.90
299.04 1.000576 3.481856E-3 0.697454  3.261E-5 8.09814 40941 298.90
299.05 1.000576 3.515252E-3 0.697607  3.253E-5 8.09745 40971 298.95
299.05 1.000576 3.433538E-3 0.697466  3.264E-5 8.09799 41001 298.90
299.04 1.000576 3.521806E-3 0.697202  3.265E-5 8.09760 41030 298.90
299.05 1.000576 3.380390E-3 0.697505  3.251E-5 8.09715 41060 298.90
299.02 1.000576 3.541439E-3 0.697457  3.254E-5 8.09690 41090 298.90
298.99 1.000576 3.601334E-3 0.697514  3.257E-5 8.09846 41120 298.90
298.99 1.000576 3.670907E-3 0.697595  3.251E-5 8.09802 41149 298.90
299.02 1.000576 3.574822E-3 0.697498  3.265E-5 8.09732 41179 298.90
298.99 1.000576 3.251972E-3 0.697594  3.250E-5 8.09767 41209 298.90
299.02 1.000576 3.367366E-3 0.697522  3.255E-5 8.09749 41238 298.90
298.99 1.000576 3.279944E-3 0.697707  3.260E-5 8.09721 41268 298.90
299.00 1.000576 3.739363E-3 0.697345  3.255E-5 8.09700 41298 298.90
299.02 1.000576 3.437066E-3 0.697569  3.256E-5 8.09805 41327 298.90
299.01 1.000576 3.407019E-3 0.697383  3.254E-5 8.09731 41357 298.90
299.04 1.000576 3.705552E-3 0.697539  3.252E-5 8.09807 41387 298.90
299.04 1.000576 3.595724E-3 0.697387  3.266E-5 8.09752 41417 298.90
299.04 1.000576 3.918263E-3 0.697542  3.258E-5 8.09707 41446 298.90
299.04 1.000576 3.896536E-3 0.697596  3.252E-5 8.09848 41476 298.90
299.04 1.000576 3.462312E-3 0.697346  3.255E-5 8.09696 41506 298.90
299.04 1.000576 3.207277E-3 0.697483  3.266E-5 8.09831 41535 298.90
299.04 1.000576 3.451606E-3 0.697588  3.247E-5 8.09654 41565 298.90
299.03 1.000576 3.493201E-3 0.697548  3.253E-5 8.09746 41595 298.90
299.03 1.000576 3.552448E-3 0.697585  3.253E-5 8.09784 41624 298.90
299.04 1.000576 3.624417E-3 0.697566  3.260E-5 8.09708 41654 298.90
299.03 1.000576 3.448123E-3 0.697562  3.265E-5 8.09741 41684 298.90
299.04 1.000576 3.915864E-3 0.697445  3.255E-5 8.09743 41714 298.90
299.03 1.000576 3.742496E-3 0.697498  3.245E-5 8.09757 41743 298.90
299.03 1.000576 3.635909E-3 0.697623  3.258E-5 8.09684 41773 298.90
299.04 1.000576 3.914347E-3 0.697624  3.261E-5 8.09689 41803 298.90
299.04 1.000576 3.707770E-3 0.697501  3.254E-5 8.09653 41832 298.90
299.04 1.000576 3.466273E-3 0.697414  3.266E-5 8.09852 41862 298.90
299.04 1.000576 3.535562E-3 0.697594  3.254E-5 8.09687 41892 298.90
299.05 1.000576 3.448794E-3 0.697579  3.264E-5 8.09736 41921 298.90
299.02 1.000576 3.562824E-3 0.697564  3.249E-5 8.09594 41951 298.90
299.05 1.000576 3.860770E-3 0.697698  3.252E-5 8.09800 41981 298.90
299.04 1.000576 3.814453E-3 0.697492  3.250E-5 8.09792 42011 298.90
299.03 1.000576 4.030161E-3 0.697780  3.248E-5 8.09673 42040 298.90
299.04 1.000576 3.378240E-3 0.697538  3.254E-5 8.09735 42070 298.90
299.03 1.000576 3.616438E-3 0.697712  3.250E-5 8.09556 42100 298.90
299.04 1.000576 4.059007E-3 0.697944  3.255E-5 8.09736 42129 298.90
299.03 1.000576 3.500979E-3 0.697222  3.254E-5 8.09853 42159 298.90
299.03 1.000576 3.464081E-3 0.697539  3.268E-5 8.09680 42189 298.90
299.03 1.000576 3.238050E-3 0.697795  3.258E-5 8.09714 42218 298.90
299.04 1.000576 3.559981E-3 0.697328  3.268E-5 8.09736 42248 298.90
299.04 1.000576 3.713295E-3 0.697529  3.253E-5 8.09629 42278 298.90
299.03 1.000576 3.489896E-3 0.697647  3.254E-5 8.09631 42308 298.90
299.04 1.000576 3.214189E-3 0.697563  3.256E-5 8.09753 42337 298.90
298.99 1.000576 3.033904E-3 0.697664  3.258E-5 8.09617 42367 298.90
298.98 1.000576 3.828634E-3 0.697712  3.258E-5 8.09746 42397 298.90
298.99 1.000576 3.569009E-3 0.697636  3.253E-5 8.09806 42426 298.90
298.99 1.000576 3.681722E-3 0.697654  3.253E-5 8.09717 42456 298.90
299.00 1.000576 3.304139E-3 0.697854  3.264E-5 8.09712 42486 298.90
299.00 1.000576 3.728429E-3 0.697720  3.252E-5 8.09701 42515 298.90
299.00 1.000576 3.735990E-3 0.697656  3.255E-5 8.09730 42545 298.90
299.00 1.000576 3.928087E-3 0.697740  3.251E-5 8.09767 42575 298.90
299.00 1.000576 3.435888E-3 0.697816  3.259E-5 8.09762 42605 298.90
299.00 1.000576 3.441289E-3 0.697873  3.253E-5 8.09804 42634 298.90
299.02 1.000576 3.772157E-3 0.697589  3.249E-5 8.09689 42664 298.90
298.96 1.000576 3.627591E-3 0.697736  3.248E-5 8.09721 42694 298.90
298.97 1.000576 3.565340E-3 0.697851  3.258E-5 8.09707 42723 298.90
298.98 1.000576 3.532235E-3 0.697729  3.262E-5 8.09786 42753 298.90
298.98 1.000576 3.576833E-3 0.697691  3.259E-5 8.09623 42783 298.90
298.98 1.000576 3.525637E-3 0.697649  3.255E-5 8.09621 42812 298.90
298.98 1.000576 3.742768E-3 0.697809  3.255E-5 8.09727 42842 298.90
298.99 1.000576 3.286439E-3 0.697971  3.246E-5 8.09598 42872 298.90
298.99 1.000576 3.261254E-3 0.697833  3.247E-5 8.09637 42902 298.90
298.99 1.000576 3.594894E-3 0.697660  3.245E-5 8.09716 42931 298.90
298.98 1.000576 3.963598E-3 0.697700  3.243E-5 8.09590 42961 298.90
298.99 1.000576 3.546212E-3 0.697841  3.258E-5 8.09751 42991 298.90
298.98 1.000576 3.592940E-3 0.697781  3.247E-5 8.09721 43020 298.90
298.98 1.000576 3.616872E-3 0.697775  3.249E-5 8.09733 43050 298.90
298.98 1.000576 3.551357E-3 0.697762  3.269E-5 8.09759 43080 298.90
298.99 1.000576 3.546607E-3 0.697786  3.235E-5 8.09621 43109 298.85
298.99 1.000576 3.740498E-3 0.697649  3.254E-5 8.09597 43139 298.90
298.98 1.000576 3.397746E-3 0.697493  3.262E-5 8.09689 43169 298.90
298.98 1.000576 3.733064E-3 0.697723  3.248E-5 8.09777 43199 298.90
298.98 1.000576 3.465879E-3 0.697774  3.245E-5 8.09658 43228 298.90
298.97 1.000576 3.692438E-3 0.697627  3.240E-5 8.09662 43258 298.90
298.98 1.000576 3.472762E-3 0.697762  3.258E-5 8.09621 43288 298.90
298.98 1.000576 3.329393E-3 0.697505  3.243E-5 8.09517 43317 298.85
298.98 1.000576 3.675686E-3 0.697398  3.255E-5 8.09668 43347 298.90
298.97 1.000576 3.499279E-3 0.697479  3.254E-5 8.09705 43377 298.90
298.97 1.000576 3.316484E-3 0.697584  3.261E-5 8.09760 43406 298.90
298.97 1.000576 3.419795E-3 0.697648  3.253E-5 8.09646 43436 298.90
298.97 1.000576 3.504301E-3 0.697730  3.252E-5 8.09785 43466 298.90
298.97 1.000576 3.236466E-3 0.697871  3.244E-5 8.09652 43496 298.90
298.97 1.000576 3.717758E-3 0.697623  3.260E-5 8.09700 43525 298.85
298.97 1.000576 3.171244E-3 0.697877  3.250E-5 8.09668 43555 298.85
298.97 1.000576 3.434144E-3 0.697806  3.261E-5 8.09700 43585 298.85
298.97 1.000576 3.500965E-3 0.697634  3.253E-5 8.09745 43614 298.85
298.97 1.000576 3.402438E-3 0.697789  3.253E-5 8.09710 43644 298.90
298.96 1.000576 3.225328E-3 0.697846  3.258E-5 8.09663 43674 298.85
298.97 1.000576 3.736742E-3 0.697854  3.249E-5 8.09720 43703 298.90
298.94 1.000576 3.394744E-3 0.697959  3.251E-5 8.09729 43733 298.80
298.94 1.000576 3.588806E-3 0.697868  3.261E-5 8.09663 43763 298.80
298.95 1.000576 3.419831E-3 0.697917  3.261E-5 8.09776 43793 298.85
298.92 1.000576 3.240250E-3 0.697863  3.246E-5 8.09758 43822 298.80
298.91 1.000576 3.730678E-3 0.697962  3.252E-5 8.09731 43852 298.85
298.91 1.000576 3.749837E-3 0.697968  3.242E-5 8.09726 43882 298.80
298.92 1.000576 3.599998E-3 0.697948  3.251E-5 8.09703 43911 298.80
298.95 1.000576 3.687070E-3 0.698199  3.257E-5 8.09793 43941 298.80
298.91 1.000576 3.484726E-3 0.698065  3.244E-5 8.09785 43971 298.80
298.91 1.000576 3.581960E-3 0.698009  3.245E-5 8.09685 44000 298.85
298.91 1.000576 3.615500E-3 0.697801  3.255E-5 8.09703 44030 298.80
298.92 1.000576 3.680551E-3 0.697712  3.257E-5 8.09676 44060 298.85
298.92 1.000576 3.692505E-3 0.697764  3.246E-5 8.09821 44090 298.85
298.92 1.000576 3.494569E-3 0.697646  3.260E-5 8.09738 44119 298.80
298.94 1.000576 3.435036E-3 0.697718  3.253E-5 8.09730 44149 298.80
298.97 1.000576 3.554166E-3 0.697850  3.252E-5 8.09727 44179 298.80
298.97 1.000576 3.625325E-3 0.697536  3.259E-5 8.09657 44208 298.80
298.97 1.000576 3.293275E-3 0.697642  3.253E-5 8.09742 44238 298.80
298.97 1.000576 3.280883E-3 0.697710  3.245E-5 8.09696 44268 298.90
298.96 1.000576 3.621961E-3 0.697900  3.254E-5 8.09764 44297 298.80
298.97 1.000576 3.513097E-3 0.697724  3.253E-5 8.09652 44327 298.80
298.96 1.000576 3.454016E-3 0.697588  3.249E-5 8.09724 44357 298.80
298.97 1.000576 3.444853E-3 0.697645  3.260E-5 8.09666 44387 298.80
298.96 1.000576 3.533808E-3 0.697658  3.256E-5 8.09883 44416 298.80
298.95 1.000576 3.870673E-3 0.697723  3.266E-5 8.09624 44446 298.80
298.95 1.000576 3.505083E-3 0.697604  3.251E-5 8.09782 44476 298.80
298.96 1.000576 3.695436E-3 0.697740  3.258E-5 8.09740 44505 298.85
298.97 1.000576 3.551391E-3 0.697538  3.256E-5 8.09792 44535 298.80
298.94 1.000576 3.212971E-3 0.697953  3.254E-5 8.09596 44565 298.80
298.90 1.000576 3.547180E-3 0.697797  3.253E-5 8.09754 44594 298.85
298.91 1.000576 3.620953E-3 0.697711  3.254E-5 8.09606 44624 298.85
298.92 1.000576 3.760845E-3 0.697947  3.263E-5 8.09770 44654 298.80
298.92 1.000576 3.574289E-3 0.697823  3.251E-5 8.09690 44684 298.85
298.91 1.000576 3.474566E-3 0.698269  3.251E-5 8.09666 44713 298.80
298.90 1.000576 3.635714E-3 0.697692  3.249E-5 8.09720 44743 298.80
298.90 1.000576 3.564804E-3 0.697901  3.248E-5 8.09660 44773 298.80
298.90 1.000576 3.746644E-3 0.697828  3.248E-5 8.09656 44802 298.80
298.91 1.000576 3.504383E-3 0.697723  3.261E-5 8.09715 44832 298.80
298.91 1.000576 3.594532E-3 0.697852  3.268E-5 8.09729 44862 298.80
298.91 1.000576 3.709646E-3 0.697639  3.267E-5 8.09753 44891 298.80
298.90 1.000576 3.520261E-3 0.697819  3.270E-5 8.09700 44921 298.80
298.93 1.000576 3.612495E-3 0.697886  3.246E-5 8.09804 44951 298.80
298.90 1.000576 3.461400E-3 0.697878  3.268E-5 8.09622 44981 298.80
298.90 1.000576 3.524324E-3 0.697708  3.257E-5 8.09734 45010 298.80
298.89 1.000576 3.473322E-3 0.697807  3.264E-5 8.09774 45040 298.80
298.91 1.000576 3.437958E-3 0.697811  3.261E-5 8.09551 45070 298.80
298.91 1.000576 3.371301E-3 0.697685  3.258E-5 8.09683 45099 298.80
298.91 1.000576 3.534281E-3 0.697679  3.256E-5 8.09729 45129 298.80
298.91 1.000576 3.390609E-3 0.697825  3.260E-5 8.09682 45159 298.80
298.90 1.000576 3.352908E-3 0.697732  3.252E-5 8.09738 45188 298.80
298.90 1.000576 3.539753E-3 0.697617  3.255E-5 8.09723 45218 298.80
298.90 1.000576 3.609671E-3 0.697778  3.256E-5 8.09671 45248 298.80
298.91 1.000576 3.419561E-3 0.697734  3.255E-5 8.09583 45278 298.80
298.91 1.000576 3.658098E-3 0.698031  3.260E-5 8.09687 45307 298.80
298.96 1.000576 3.890803E-3 0.697786  3.257E-5 8.09754 45337 298.80
298.89 1.000576 3.553833E-3 0.697425  3.246E-5 8.09655 45367 298.80
298.89 1.000576 3.303041E-3 0.697638  3.263E-5 8.09685 45396 298.80
298.96 1.000576 3.871540E-3 0.697765  3.259E-5 8.09752 45426 298.80
298.90 1.000576 3.583391E-3 0.697995  3.258E-5 8.09740 45456 298.80
298.90 1.000576 3.707016E-3 0.697706  3.253E-5 8.09665 45485 298.80
298.93 1.000576 3.493088E-3 0.697824  3.256E-5 8.09730 45515 298.80
298.90 1.000576 3.299057E-3 0.697758  3.255E-5 8.09669 45545 298.80
298.95 1.000576 3.335779E-3 0.697590  3.248E-5 8.09644 45575 298.80
298.89 1.000576 3.714848E-3 0.697865  3.248E-5 8.09686 45604 298.80
298.89 1.000576 3.301058E-3 0.697744  3.250E-5 8.09813 45634 298.80
298.89 1.000576 3.540937E-3 0.697823  3.247E-5 8.09827 45664 298.80
298.88 1.000576 3.504687E-3 0.697925  3.253E-5 8.09735 45693 298.80
298.88 1.000576 3.125732E-3 0.697842  3.255E-5 8.09823 45723 298.80
298.91 1.000576 3.364135E-3 0.697761  3.242E-5 8.09835 45753 298.80
298.92 1.000576 3.676622E-3 0.697734  3.250E-5 8.09617 45782 298.80
298.88 1.000576 3.627922E-3 0.697853  3.252E-5 8.09678 45812 298.80
298.87 1.000576 3.830732E-3 0.697875  3.255E-5 8.09661 45842 298.80
298.91 1.000576 3.966702E-3 0.697608  3.275E-5 8.09699 45872 298.80
298.88 1.000576 3.540864E-3 0.697844  3.244E-5 8.09653 45901 298.80
298.88 1.000576 3.560079E-3 0.697789  3.261E-5 8.09669 45931 298.80
298.89 1.000576 3.534856E-3 0.698021  3.265E-5 8.09659 45961 298.80
298.89 1.000576 3.668801E-3 0.697919  3.267E-5 8.09633 45990 298.80
298.89 1.000576 3.609172E-3 0.697988  3.251E-5 8.09619 46020 298.80
298.89 1.000576 3.409890E-3 0.697942  3.258E-5 8.09610 46050 298.80
298.93 1.000576 3.611118E-3 0.698101  3.264E-5 8.09761 46079 298.80
298.89 1.000576 3.443278E-3 0.697978  3.245E-5 8.09654 46109 298.80
298.89 1.000576 3.523128E-3 0.698166  3.264E-5 8.09753 46139 298.80
298.89 1.000576 3.395181E-3 0.698061  3.271E-5 8.09644 46169 298.80
298.88 1.000576 3.206261E-3 0.697944  3.273E-5 8.09604 46198 298.80
298.90 1.000576 3.948364E-3 0.698070  3.252E-5 8.09674 46228 298.80
298.90 1.000576 3.956183E-3 0.697961  3.248E-5 8.09647 46258 298.80
298.91 1.000576 3.674419E-3 0.697920  3.249E-5 8.09680 46287 298.80
298.87 1.000576 3.719680E-3 0.697873  3.246E-5 8.09746 46317 298.80
298.88 1.000576 2.945761E-3 0.698475  3.260E-5 8.09685 46347 298.80
298.88 1.000576 3.213351E-3 0.697831  3.255E-5 8.09584 46376 298.80
298.88 1.000576 3.540241E-3 0.698068  3.251E-5 8.09702 46406 298.80
298.88 1.000576 3.298398E-3 0.698035  3.256E-5 8.09665 46436 298.80
298.87 1.000576 3.509805E-3 0.697648  3.256E-5 8.09738 46466 298.80
298.88 1.000576 4.164078E-3 0.697750  3.245E-5 8.09716 46495 298.80
298.90 1.000576 3.164076E-3 0.698090  3.241E-5 8.09734 46525 298.80
298.86 1.000576 3.238157E-3 0.697710  3.257E-5 8.09747 46555 298.80
298.90 1.000576 3.351096E-3 0.697743  3.242E-5 8.09695 46584 298.80
298.89 1.000576 3.717491E-3 0.697786  3.261E-5 8.09581 46614 298.80
298.92 1.000576 3.745089E-3 0.698138  3.259E-5 8.09635 46644 298.80
298.92 1.000576 3.479388E-3 0.698004  3.258E-5 8.09609 46673 298.80
298.92 1.000576 3.767983E-3 0.698049  3.256E-5 8.09584 46703 298.80
298.92 1.000576 3.553420E-3 0.698117  3.261E-5 8.09518 46733 298.80
298.92 1.000576 3.406541E-3 0.697809  3.260E-5 8.09652 46763 298.80
298.91 1.000576 3.392098E-3 0.697923  3.248E-5 8.09641 46792 298.80
298.91 1.000576 3.554588E-3 0.697944  3.240E-5 8.09621 46822 298.80
298.89 1.000576 3.202686E-3 0.698080  3.259E-5 8.09683 46852 298.80
298.92 1.000576 3.714825E-3 0.698119  3.251E-5 8.09693 46881 298.80
298.92 1.000576 3.532939E-3 0.697989  3.252E-5 8.09669 46911 298.80
298.89 1.000576 3.542255E-3 0.698110  3.257E-5 8.09604 46941 298.80
298.89 1.000576 3.502019E-3 0.698096  3.262E-5 8.09586 46970 298.80
298.93 1.000576 3.443833E-3 0.698062  3.256E-5 8.09643 47000 298.80
298.90 1.000576 4.158457E-3 0.698057  3.250E-5 8.09573 47030 298.80
298.90 1.000576 3.424516E-3 0.697857  3.264E-5 8.09644 47060 298.80
298.86 1.000576 3.629389E-3 0.698182  3.239E-5 8.09678 47089 298.80
298.93 1.000576 3.637704E-3 0.697860  3.259E-5 8.09608 47119 298.80
298.92 1.000576 3.743213E-3 0.698053  3.258E-5 8.09648 47149 298.80
298.92 1.000576 3.719263E-3 0.698015  3.254E-5 8.09664 47178 298.75
298.89 1.000576 3.850447E-3 0.697991  3.259E-5 8.09550 47208 298.80
298.89 1.000576 3.603471E-3 0.697815  3.248E-5 8.09544 47238 298.80
298.92 1.000576 3.559349E-3 0.697746  3.257E-5 8.09670 47267 298.80
298.91 1.000576 3.772155E-3 0.697870  3.247E-5 8.09585 47297 298.80
298.91 1.000576 3.838689E-3 0.697934  3.248E-5 8.09609 47327 298.80
298.91 1.000576 3.599392E-3 0.698078  3.265E-5 8.09593 47357 298.75
298.91 1.000576 3.622161E-3 0.697886  3.259E-5 8.09573 47386 298.80
298.92 1.000576 3.564254E-3 0.697795  3.259E-5 8.09627 47416 298.80
298.92 1.000576 3.703616E-3 0.697901  3.248E-5 8.09568 47446 298.80
298.92 1.000576 3.595760E-3 0.697812  3.263E-5 8.09563 47475 298.80
298.91 1.000576 3.393230E-3 0.697914  3.247E-5 8.09660 47505 298.80
298.91 1.000576 3.542586E-3 0.697843  3.256E-5 8.09556 47535 298.80
298.90 1.000576 3.620058E-3 0.697945  3.254E-5 8.09571 47564 298.80
298.90 1.000576 3.750960E-3 0.698013  3.266E-5 8.09605 47594 298.80
298.89 1.000576 3.366323E-3 0.697971  3.264E-5 8.09668 47624 298.80
298.90 1.000576 3.613285E-3 0.697959  3.266E-5 8.09526 47654 298.80
298.89 1.000576 3.608990E-3 0.698027  3.245E-5 8.09600 47683 298.80
298.88 1.000576 3.347004E-3 0.698151  3.243E-5 8.09512 47713 298.80
298.89 1.000576 3.720882E-3 0.697987  3.268E-5 8.09714 47743 298.80
298.89 1.000576 3.465320E-3 0.697818  3.251E-5 8.09642 47772 298.75
298.89 1.000576 3.719332E-3 0.698031  3.260E-5 8.09544 47802 298.80
298.91 1.000576 3.694796E-3 0.698043  3.263E-5 8.09520 47832 298.80
298.90 1.000576 3.649170E-3 0.697967  3.257E-5 8.09602 47861 298.80
298.89 1.000576 3.683206E-3 0.698104  3.264E-5 8.09634 47891 298.80
298.89 1.000576 3.635123E-3 0.697661  3.260E-5 8.09503 47921 298.80
298.90 1.000576 3.512724E-3 0.698272  3.247E-5 8.09507 47951 298.80
298.90 1.000576 3.545482E-3 0.698158  3.262E-5 8.09649 47980 298.75
298.89 1.000576 3.595140E-3 0.697775  3.266E-5 8.09571 48010 298.80
298.86 1.000576 3.133921E-3 0.698091  3.258E-5 8.09624 48040 298.80
298.89 1.000576 3.611929E-3 0.697918  3.270E-5 8.09510 48069 298.80
298.86 1.000576 3.644499E-3 0.698198  3.250E-5 8.09553 48099 298.80
298.84 1.000576 3.780223E-3 0.698211  3.264E-5 8.09589 48129 298.75
298.83 1.000576 4.004139E-3 0.698320  3.248E-5 8.09572 48158 298.75
298.86 1.000576 3.826459E-3 0.698024  3.266E-5 8.09651 48188 298.75
298.86 1.000576 3.519449E-3 0.698164  3.246E-5 8.09559 48218 298.80
298.83 1.000576 3.347132E-3 0.698323  3.249E-5 8.09556 48248 298.75
298.86 1.000576 3.252870E-3 0.698031  3.268E-5 8.09555 48277 298.80
298.86 1.000576 3.429975E-3 0.697975  3.251E-5 8.09673 48307 298.75
298.83 1.000576 3.364144E-3 0.697832  3.252E-5 8.09593 48337 298.80
298.83 1.000576 3.455202E-3 0.698022  3.252E-5 8.09587 48366 298.80
298.86 1.000576 3.443450E-3 0.698177  3.255E-5 8.09412 48396 298.80
298.83 1.000576 3.427366E-3 0.698102  3.253E-5 8.09618 48426 298.75
298.87 1.000576 3.834808E-3 0.698078  3.262E-5 8.09579 48455 298.80
298.87 1.000576 3.563824E-3 0.697997  3.259E-5 8.09476 48485 298.80
298.87 1.000576 3.734412E-3 0.697896  3.254E-5 8.09631 48515 298.80
298.87 1.000576 3.553637E-3 0.698183  3.266E-5 8.09601 48545 298.75
298.84 1.000576 3.521229E-3 0.698062  3.251E-5 8.09613 48574 298.75
298.84 1.000576 3.877521E-3 0.697876  3.263E-5 8.09612 48604 298.80
298.84 1.000576 3.377332E-3 0.697955  3.255E-5 8.09585 48634 298.80
298.84 1.000576 3.699494E-3 0.698225  3.263E-5 8.09658 48663 298.80
298.83 1.000576 3.301644E-3 0.698258  3.261E-5 8.09641 48693 298.80
298.82 1.000576 3.192632E-3 0.697781  3.253E-5 8.09618 48723 298.75
298.85 1.000576 3.430485E-3 0.697962  3.244E-5 8.09563 48752 298.70
298.83 1.000576 3.846325E-3 0.698001  3.252E-5 8.09539 48782 298.75
298.86 1.000576 3.508169E-3 0.697972  3.256E-5 8.09591 48812 298.75
298.86 1.000576 3.603470E-3 0.697951  3.252E-5 8.09477 48842 298.80
298.86 1.000576 3.534228E-3 0.697997  3.262E-5 8.09555 48871 298.75
298.89 1.000576 3.788925E-3 0.698061  3.259E-5 8.09540 48901 298.75
298.88 1.000576 3.505204E-3 0.698169  3.251E-5 8.09526 48931 298.80
298.88 1.000576 3.727260E-3 0.697987  3.267E-5 8.09677 48960 298.75
298.87 1.000576 3.652035E-3 0.698052  3.261E-5 8.09555 48990 298.80
298.86 1.000576 3.392451E-3 0.698123  3.256E-5 8.09514 49020 298.80
298.89 1.000576 3.338217E-3 0.697973  3.247E-5 8.09406 49049 298.80
298.88 1.000576 3.909308E-3 0.697994  3.260E-5 8.09540 49079 298.80
298.88 1.000576 3.536294E-3 0.698014  3.258E-5 8.09570 49109 298.75
298.88 1.000576 3.522239E-3 0.698015  3.258E-5 8.09534 49139 298.70
298.88 1.000576 3.689233E-3 0.698066  3.252E-5 8.09636 49168 298.70
298.88 1.000576 3.535958E-3 0.698021  3.264E-5 8.09502 49198 298.80
298.87 1.000576 3.441789E-3 0.698328  3.258E-5 8.09562 49228 298.80
298.88 1.000576 3.423522E-3 0.698027  3.247E-5 8.09561 49257 298.75
298.87 1.000576 3.579806E-3 0.698082  3.258E-5 8.09524 49287 298.80
298.87 1.000576 3.366412E-3 0.698005  3.259E-5 8.09549 49317 298.75
298.87 1.000576 3.725398E-3 0.697794  3.265E-5 8.09510 49346 298.70
298.86 1.000576 3.673799E-3 0.698057  3.268E-5 8.09527 49376 298.75
298.87 1.000576 3.693026E-3 0.697972  3.259E-5 8.09535 49406 298.80
298.87 1.000576 3.806049E-3 0.697894  3.243E-5 8.09573 49436 298.70
298.88 1.000576 3.518841E-3 0.698035  3.254E-5 8.09572 49465 298.75
298.87 1.000576 3.440065E-3 0.698094  3.261E-5 8.09531 49495 298.75
298.87 1.000576 3.348883E-3 0.698010  3.246E-5 8.09546 49525 298.75
298.84 1.000576 3.699009E-3 0.697880  3.249E-5 8.09579 49554 298.70
298.86 1.000576 3.638979E-3 0.698224  3.263E-5 8.09647 49584 298.75
298.86 1.000576 3.851281E-3 0.698099  3.249E-5 8.09613 49614 298.75
298.86 1.000576 3.681284E-3 0.698118  3.254E-5 8.09468 49643 298.75
298.79 1.000576 3.541448E-3 0.698227  3.251E-5 8.09577 49673 298.70
298.84 1.000576 3.545995E-3 0.698057  3.248E-5 8.09460 49703 298.75
298.84 1.000576 3.451710E-3 0.698266  3.252E-5 8.09482 49733 298.70
298.82 1.000576 3.382217E-3 0.698093  3.249E-5 8.09466 49762 298.75
298.81 1.000576 3.492468E-3 0.698286  3.251E-5 8.09528 49792 298.70
298.81 1.000576 3.538076E-3 0.698136  3.260E-5 8.09583 49822 298.75
298.82 1.000576 3.335228E-3 0.697999  3.258E-5 8.09602 49851 298.75
298.81 1.000576 3.396897E-3 0.698048  3.256E-5 8.09547 49881 298.75
298.82 1.000576 3.834012E-3 0.698460  3.256E-5 8.09502 49911 298.75
298.82 1.000576 3.644865E-3 0.698283  3.262E-5 8.09500 49940 298.70
298.83 1.000576 3.702577E-3 0.698174  3.251E-5 8.09476 49970 298.80
298.83 1.000576 3.441189E-3 0.698170  3.258E-5 8.09510 50000 298.75
298.82 1.000576 3.413723E-3 0.698164  3.261E-5 8.09532 50030 298.80
298.83 1.000576 3.586994E-3 0.698129  3.256E-5 8.09496 50059 298.70
298.83 1.000576 3.344704E-3 0.697954  3.259E-5 8.09556 50089 298.75
298.83 1.000576 3.541733E-3 0.698297  3.257E-5 8.09524 50119 298.80
298.83 1.000576 3.425820E-3 0.698351  3.258E-5 8.09456 50148 298.75
298.83 1.000576 3.427769E-3 0.698227  3.259E-5 8.09587 50178 298.80
298.83 1.000576 3.373546E-3 0.698092  3.255E-5 8.09436 50208 298.75
298.83 1.000576 3.689063E-3 0.698274  3.249E-5 8.09522 50237 298.75
298.84 1.000576 3.475640E-3 0.697938  3.264E-5 8.09496 50267 298.70
298.84 1.000576 3.624791E-3 0.698183  3.257E-5 8.09551 50297 298.80
298.83 1.000576 3.339614E-3 0.698084  3.281E-5 8.09623 50327 298.80
298.83 1.000576 3.667089E-3 0.698487  3.258E-5 8.09469 50356 298.75
298.83 1.000576 3.378409E-3 0.698401  3.245E-5 8.09441 50386 298.75
298.83 1.000576 3.748962E-3 0.698337  3.260E-5 8.09481 50416 298.75
298.83 1.000576 3.421273E-3 0.698188  3.240E-5 8.09446 50445 298.70
298.83 1.000576 3.846007E-3 0.698180  3.254E-5 8.09463 50475 298.70
298.83 1.000576 3.658879E-3 0.698299  3.265E-5 8.09501 50505 298.75
298.84 1.000576 3.116910E-3 0.698170  3.244E-5 8.09521 50534 298.70
298.84 1.000576 3.459043E-3 0.698355  3.257E-5 8.09483 50564 298.70
298.84 1.000576 3.450473E-3 0.698343  3.255E-5 8.09407 50594 298.70
298.84 1.000576 3.544757E-3 0.698448  3.250E-5 8.09495 50624 298.70
298.84 1.000576 3.799551E-3 0.698157  3.248E-5 8.09501 50653 298.70
298.85 1.000576 3.528489E-3 0.698203  3.258E-5 8.09481 50683 298.70
298.84 1.000576 3.315767E-3 0.698292  3.255E-5 8.09456 50713 298.75
298.84 1.000576 3.428179E-3 0.698329  3.258E-5 8.09459 50742 298.70
298.83 1.000576 3.317366E-3 0.698119  3.257E-5 8.09527 50772 298.75
298.83 1.000576 3.655238E-3 0.698107  3.251E-5 8.09440 50802 298.70
298.83 1.000576 3.567542E-3 0.698169  3.258E-5 8.09499 50831 298.75
298.83 1.000576 3.363343E-3 0.698191  3.250E-5 8.09506 50861 298.75
298.83 1.000576 3.502210E-3 0.698364  3.252E-5 8.09540 50891 298.70
298.82 1.000576 3.831653E-3 0.698334  3.261E-5 8.09545 50921 298.70
298.81 1.000576 3.373139E-3 0.698033  3.263E-5 8.09476 50950 298.75
298.84 1.000576 3.278772E-3 0.698324  3.255E-5 8.09562 50980 298.70
298.84 1.000576 3.320482E-3 0.698290  3.258E-5 8.09574 51010 298.75
298.85 1.000576 3.226512E-3 0.698079  3.242E-5 8.09467 51039 298.70
298.87 1.000576 3.620094E-3 0.698216  3.245E-5 8.09503 51069 298.70
298.85 1.000576 3.719775E-3 0.698309  3.251E-5 8.09515 51099 298.75
298.84 1.000576 3.427233E-3 0.698531  3.263E-5 8.09460 51128 298.70
298.83 1.000576 3.435211E-3 0.698168  3.251E-5 8.09337 51158 298.70
298.83 1.000576 3.458053E-3 0.697958  3.262E-5 8.09449 51188 298.70
298.83 1.000576 3.406085E-3 0.698302  3.252E-5 8.09468 51218 298.70
298.86 1.000576 3.441130E-3 0.698368  3.254E-5 8.09530 51247 298.70
298.82 1.000576 3.345795E-3 0.698225  3.254E-5 8.09488 51277 298.70
298.82 1.000576 3.528812E-3 0.698309  3.248E-5 8.09540 51307 298.70
298.80 1.000576 3.513352E-3 0.698482  3.253E-5 8.09420 51336 298.70
298.86 1.000576 3.595319E-3 0.698232  3.259E-5 8.09494 51366 298.70
298.83 1.000576 3.494521E-3 0.698363  3.262E-5 8.09531 51396 298.70
298.87 1.000576 2.708543E-3 0.698240  3.255E-5 8.09466 51425 298.75
298.86 1.000576 3.719683E-3 0.698336  3.256E-5 8.09549 51455 298.70
298.85 1.000576 3.319694E-3 0.698292  3.258E-5 8.09423 51485 298.70
298.85 1.000576 3.133062E-3 0.698206  3.257E-5 8.09423 51515 298.70
298.86 1.000576 3.654039E-3 0.698089  3.258E-5 8.09422 51544 298.70
298.86 1.000576 3.616309E-3 0.698379  3.251E-5 8.09364 51574 298.70
298.85 1.000576 3.529185E-3 0.698391  3.244E-5 8.09456 51604 298.70
298.85 1.000576 3.575980E-3 0.698123  3.269E-5 8.09399 51633 298.70
298.85 1.000576 3.121538E-3 0.698155  3.259E-5 8.09528 51663 298.70
298.79 1.000576 3.580106E-3 0.698085  3.263E-5 8.09525 51693 298.70
298.79 1.000576 3.309445E-3 0.698310  3.254E-5 8.09475 51722 298.70
298.83 1.000576 3.555020E-3 0.698217  3.259E-5 8.09463 51752 298.70
298.83 1.000576 3.704462E-3 0.698292  3.253E-5 8.09425 51782 298.75
298.82 1.000576 3.667021E-3 0.698332  3.266E-5 8.09377 51812 298.70
298.79 1.000576 3.543593E-3 0.698248  3.260E-5 8.09537 51841 298.70
298.86 1.000576 3.097095E-3 0.698179  3.258E-5 8.09407 51871 298.70
298.82 1.000576 3.722047E-3 0.698080  3.254E-5 8.09497 51901 298.70
298.81 1.000576 3.945808E-3 0.698362  3.246E-5 8.09419 51930 298.70
298.84 1.000576 3.763851E-3 0.698369  3.263E-5 8.09455 51960 298.70
298.83 1.000576 3.694862E-3 0.698467  3.248E-5 8.09460 51990 298.70
298.84 1.000576 3.959600E-3 0.698416  3.262E-5 8.09434 52019 298.70
298.82 1.000576 4.005373E-3 0.698179  3.257E-5 8.09451 52049 298.70
298.84 1.000576 3.549559E-3 0.698331  3.247E-5 8.09424 52079 298.70
298.81 1.000576 3.824881E-3 0.698088  3.254E-5 8.09380 52109 298.70
298.78 1.000576 3.392439E-3 0.698131  3.248E-5 8.09419 52138 298.70
298.81 1.000576 3.594425E-3 0.698182  3.250E-5 8.09391 52168 298.70
298.78 1.000576 3.241178E-3 0.698326  3.258E-5 8.09422 52198 298.70
298.79 1.000576 3.954175E-3 0.698307  3.253E-5 8.09508 52227 298.70
298.79 1.000576 3.399015E-3 0.698738  3.263E-5 8.09457 52257 298.70
298.80 1.000576 3.632647E-3 0.698678  3.253E-5 8.09372 52287 298.70
298.80 1.000576 3.552238E-3 0.698122  3.265E-5 8.09396 52316 298.70
298.79 1.000576 4.290637E-3 0.698495  3.244E-5 8.09393 52346 298.70
298.79 1.000576 3.585625E-3 0.698160  3.255E-5 8.09385 52376 298.70
298.80 1.000576 3.820739E-3 0.698245  3.241E-5 8.09357 52406 298.70
298.80 1.000576 3.499531E-3 0.698225  3.256E-5 8.09407 52435 298.70
298.80 1.000576 3.857495E-3 0.698149  3.255E-5 8.09418 52465 298.70
298.80 1.000576 3.025205E-3 0.698184  3.248E-5 8.09395 52495 298.70
298.80 1.000576 3.570474E-3 0.698144  3.262E-5 8.09332 52524 298.70
298.80 1.000576 3.444448E-3 0.698194  3.252E-5 8.09381 52554 298.70
298.81 1.000576 3.399494E-3 0.698216  3.270E-5 8.09428 52584 298.70
298.81 1.000576 3.558692E-3 0.698170  3.252E-5 8.09365 52613 298.70
298.81 1.000576 3.487444E-3 0.698230  3.267E-5 8.09526 52643 298.70
298.80 1.000576 3.580934E-3 0.698186  3.266E-5 8.09347 52673 298.70
298.80 1.000576 3.184104E-3 0.698091  3.258E-5 8.09439 52703 298.70
298.80 1.000576 3.681385E-3 0.698101  3.255E-5 8.09424 52732 298.70
298.80 1.000576 3.673508E-3 0.698236  3.256E-5 8.09503 52762 298.70
298.80 1.000576 3.294413E-3 0.698226  3.275E-5 8.09520 52792 298.70
298.79 1.000576 3.600592E-3 0.698473  3.257E-5 8.09415 52821 298.70
298.80 1.000576 3.612956E-3 0.698271  3.254E-5 8.09442 52851 298.70
298.79 1.000576 3.372694E-3 0.698066  3.240E-5 8.09466 52881 298.70
298.80 1.000576 3.791992E-3 0.698152  3.260E-5 8.09455 52910 298.70
298.80 1.000576 3.299738E-3 0.698365  3.265E-5 8.09446 52940 298.70
298.79 1.000576 3.617183E-3 0.698259  3.255E-5 8.09402 52970 298.70
298.79 1.000576 3.637079E-3 0.698275  3.264E-5 8.09472 53000 298.70
298.79 1.000576 3.416700E-3 0.698400  3.252E-5 8.09547 53029 298.70
298.79 1.000576 3.752805E-3 0.698187  3.257E-5 8.09409 53059 298.70
298.80 1.000576 3.464735E-3 0.698256  3.251E-5 8.09435 53089 298.70
298.80 1.000576 3.261692E-3 0.698021  3.255E-5 8.09413 53118 298.70
298.80 1.000576 3.429542E-3 0.698426  3.258E-5 8.09399 53148 298.70
298.80 1.000576 3.855069E-3 0.698013  3.265E-5 8.09431 53178 298.70
298.80 1.000576 3.352732E-3 0.698438  3.234E-5 8.09395 53207 298.70
298.81 1.000576 3.480882E-3 0.698470  3.254E-5 8.09369 53237 298.70
298.81 1.000576 3.435221E-3 0.698595  3.267E-5 8.09412 53267 298.70
298.82 1.000576 3.527836E-3 0.698151  3.259E-5 8.09405 53297 298.70
298.82 1.000576 3.376227E-3 0.698334  3.257E-5 8.09458 53326 298.70
298.82 1.000576 3.382097E-3 0.698310  3.257E-5 8.09439 53356 298.70
298.81 1.000576 3.642374E-3 0.698424  3.259E-5 8.09395 53386 298.70
298.81 1.000576 3.510565E-3 0.698314  3.255E-5 8.09433 53415 298.70
298.81 1.000576 3.484741E-3 0.698279  3.261E-5 8.09406 53445 298.70
298.82 1.000576 3.907500E-3 0.698321  3.257E-5 8.09351 53475 298.70
298.81 1.000576 3.359499E-3 0.698210  3.240E-5 8.09330 53504 298.70
298.81 1.000576 3.379549E-3 0.698277  3.251E-5 8.09274 53534 298.70
298.81 1.000576 3.433580E-3 0.698183  3.257E-5 8.09448 53564 298.70
298.81 1.000576 3.620287E-3 0.698199  3.254E-5 8.09417 53594 298.70
298.81 1.000576 3.955503E-3 0.698203  3.257E-5 8.09411 53623 298.70
298.81 1.000576 3.649484E-3 0.698589  3.246E-5 8.09456 53653 298.70
298.81 1.000576 3.626259E-3 0.698381  3.268E-5 8.09461 53683 298.70
298.81 1.000576 3.890180E-3 0.698137  3.261E-5 8.09453 53712 298.70
298.81 1.000576 3.828540E-3 0.698446  3.245E-5 8.09383 53742 298.70
298.81 1.000576 3.372587E-3 0.698349  3.259E-5 8.09373 53772 298.75
298.81 1.000576 3.486356E-3 0.698447  3.250E-5 8.09403 53801 298.70
298.82 1.000576 3.253508E-3 0.698257  3.254E-5 8.09376 53831 298.70
298.82 1.000576 3.595039E-3 0.698470  3.245E-5 8.09430 53861 298.70
298.81 1.000576 3.651738E-3 0.698577  3.248E-5 8.09383 53891 298.70
298.81 1.000576 3.474925E-3 0.698487  3.251E-5 8.09367 53920 298.70
298.81 1.000576 3.819123E-3 0.698210  3.253E-5 8.09512 53950 298.70
298.81 1.000576 3.629365E-3 0.698430  3.246E-5 8.09327 53980 298.70
298.81 1.000576 3.466533E-3 0.698406  3.249E-5 8.09345 54009 298.70
298.81 1.000576 3.891141E-3 0.698566  3.250E-5 8.09366 54039 298.70
298.81 1.000576 3.127227E-3 0.698814  3.251E-5 8.09389 54069 298.70
298.81 1.000576 3.565460E-3 0.698455  3.269E-5 8.09394 54098 298.70
298.82 1.000576 3.558924E-3 0.698404  3.272E-5 8.09377 54128 298.70
298.82 1.000576 3.308316E-3 0.698702  3.256E-5 8.09452 54158 298.70
298.82 1.000576 3.550905E-3 0.698615  3.252E-5 8.09442 54188 298.70
298.82 1.000576 3.257056E-3 0.698530  3.258E-5 8.09483 54217 298.70
298.79 1.000576 3.570551E-3 0.698747  3.248E-5 8.09423 54247 298.70
298.81 1.000576 3.515641E-3 0.698370  3.255E-5 8.09431 54277 298.70
298.82 1.000576 3.583115E-3 0.698362  3.261E-5 8.09472 54306 298.70
298.82 1.000576 3.624035E-3 0.698744  3.251E-5 8.09352 54336 298.70
298.83 1.000576 3.435470E-3 0.698662  3.249E-5 8.09308 54366 298.70
298.82 1.000576 3.443668E-3 0.698429  3.255E-5 8.09372 54395 298.70
298.82 1.000576 3.628669E-3 0.698479  3.249E-5 8.09423 54425 298.70
298.82 1.000576 3.664185E-3 0.698565  3.259E-5 8.09408 54455 298.70
298.81 1.000576 3.332078E-3 0.698398  3.253E-5 8.09296 54485 298.70
298.81 1.000576 3.427010E-3 0.698563  3.251E-5 8.09327 54514 298.70
298.82 1.000576 3.569786E-3 0.698533  3.256E-5 8.09323 54544 298.70
298.82 1.000576 3.671091E-3 0.698347  3.252E-5 8.09284 54574 298.70
298.81 1.000576 3.358366E-3 0.698490  3.263E-5 8.09246 54603 298.70
298.82 1.000576 3.565452E-3 0.698692  3.253E-5 8.09293 54633 298.70
298.82 1.000576 3.538759E-3 0.698628  3.255E-5 8.09362 54663 298.70
298.81 1.000576 3.559820E-3 0.698608  3.249E-5 8.09313 54692 298.70
298.81 1.000576 3.649045E-3 0.698498  3.257E-5 8.09477 54722 298.70
298.81 1.000576 3.382187E-3 0.698385  3.248E-5 8.09390 54752 298.70
298.81 1.000576 3.320366E-3 0.698681  3.253E-5 8.09357 54782 298.70
298.80 1.000576 3.362319E-3 0.698439  3.261E-5 8.09370 54811 298.70
298.80 1.000576 4.037764E-3 0.698690  3.266E-5 8.09356 54841 298.70
298.80 1.000576 3.382786E-3 0.698528  3.250E-5 8.09229 54871 298.70
298.80 1.000576 3.374463E-3 0.698888  3.259E-5 8.09326 54900 298.70
298.79 1.000576 3.638598E-3 0.698476  3.253E-5 8.09372 54930 298.70
298.79 1.000576 3.402715E-3 0.698442  3.252E-5 8.09265 54960 298.70
298.79 1.000576 4.267260E-3 0.698882  3.253E-5 8.09360 54989 298.70
298.79 1.000576 3.396972E-3 0.698661  3.250E-5 8.09342 55019 298.70
298.80 1.000576 3.223787E-3 0.698662  3.249E-5 8.09400 55049 298.70
298.80 1.000576 3.324508E-3 0.698748  3.256E-5 8.09412 55079 298.70
298.79 1.000576 3.462472E-3 0.698729  3.253E-5 8.09318 55108 298.70
298.78 1.000576 3.220385E-3 0.698345  3.255E-5 8.09412 55138 298.70
298.78 1.000576 3.368420E-3 0.698546  3.263E-5 8.09409 55168 298.70
298.78 1.000576 3.490247E-3 0.698450  3.247E-5 8.09338 55197 298.70
298.81 1.000576 3.550317E-3 0.698527  3.258E-5 8.09369 55227 298.70
298.82 1.000576 3.545597E-3 0.698542  3.246E-5 8.09284 55257 298.70
298.82 1.000576 3.162432E-3 0.698594  3.257E-5 8.09402 55286 298.75
298.78 1.000576 3.463856E-3 0.698455  3.254E-5 8.09266 55316 298.75
298.84 1.000576 3.634810E-3 0.698546  3.250E-5 8.09301 55346 298.70
298.84 1.000576 3.543870E-3 0.698380  3.252E-5 8.09139 55376 298.70
298.85 1.000576 3.394363E-3 0.698254  3.254E-5 8.09361 55405 298.70
298.83 1.000576 3.968042E-3 0.698462  3.252E-5 8.09325 55435 298.70
298.83 1.000576 3.766872E-3 0.698222  3.265E-5 8.09371 55465 298.70
298.82 1.000576 3.371221E-3 0.698310  3.241E-5 8.09272 55494 298.70
298.82 1.000576 3.343719E-3 0.698520  3.264E-5 8.09334 55524 298.70
298.82 1.000576 3.343642E-3 0.698421  3.254E-5 8.09364 55554 298.70
298.82 1.000576 3.464827E-3 0.698410  3.245E-5 8.09203 55583 298.70
298.82 1.000576 3.918962E-3 0.698610  3.250E-5 8.09306 55613 298.70
298.81 1.000576 3.471263E-3 0.698480  3.242E-5 8.09515 55643 298.70
298.80 1.000576 3.161494E-3 0.698461  3.254E-5 8.09417 55673 298.70
298.80 1.000576 3.416407E-3 0.698404  3.252E-5 8.09360 55702 298.70
298.81 1.000576 3.538881E-3 0.698580  3.270E-5 8.09320 55732 298.70
298.83 1.000576 3.271500E-3 0.698473  3.255E-5 8.09437 55762 298.70
298.80 1.000576 3.487919E-3 0.698586  3.243E-5 8.09315 55791 298.70
298.80 1.000576 3.565199E-3 0.698552  3.249E-5 8.09218 55821 298.70
298.79 1.000576 3.494186E-3 0.698542  3.249E-5 8.09264 55851 298.70
298.82 1.000576 3.404417E-3 0.698457  3.261E-5 8.09375 55880 298.70
298.79 1.000576 3.684619E-3 0.698198  3.259E-5 8.09326 55910 298.70
298.83 1.000576 3.360237E-3 0.698670  3.278E-5 8.09279 55940 298.70
298.83 1.000576 3.799698E-3 0.698516  3.241E-5 8.09306 55970 298.70
298.81 1.000576 3.453906E-3 0.698461  3.249E-5 8.09257 55999 298.70
298.80 1.000576 3.663880E-3 0.698491  3.252E-5 8.09270 56029 298.70
298.80 1.000576 3.433373E-3 0.698339  3.234E-5 8.09265 56059 298.70
298.85 1.000576 3.436253E-3 0.698281  3.249E-5 8.09364 56088 298.70
298.85 1.000576 3.649427E-3 0.698352  3.257E-5 8.09419 56118 298.70
298.82 1.000576 3.949125E-3 0.698473  3.255E-5 8.09387 56148 298.70
298.84 1.000576 3.610663E-3 0.698495  3.255E-5 8.09236 56177 298.70
298.80 1.000576 3.487164E-3 0.698253  3.265E-5 8.09380 56207 298.70
298.83 1.000576 3.650889E-3 0.698083  3.249E-5 8.09329 56237 298.70
298.83 1.000576 3.749299E-3 0.698514  3.255E-5 8.09342 56267 298.70
298.83 1.000576 3.610070E-3 0.698251  3.255E-5 8.09336 56296 298.70
298.83 1.000576 3.624334E-3 0.698440  3.241E-5 8.09128 56326 298.70
298.84 1.000576 3.586248E-3 0.698386  3.262E-5 8.09250 56356 298.70
298.85 1.000576 3.599336E-3 0.698463  3.234E-5 8.09340 56385 298.70
298.82 1.000576 3.549566E-3 0.698548  3.251E-5 8.09345 56415 298.70
298.84 1.000576 3.643019E-3 0.698392  3.246E-5 8.09331 56445 298.70
298.84 1.000576 3.468512E-3 0.698411  3.282E-5 8.09271 56474 298.70
298.86 1.000576 3.501126E-3 0.698537  3.264E-5 8.09295 56504 298.70
298.85 1.000576 3.512932E-3 0.698258  3.264E-5 8.09382 56534 298.70
298.82 1.000576 3.694904E-3 0.698552  3.253E-5 8.09395 56564 298.70
298.84 1.000576 3.671957E-3 0.698255  3.259E-5 8.09227 56593 298.70
298.81 1.000576 3.506472E-3 0.698324  3.260E-5 8.09322 56623 298.70
298.81 1.000576 3.656758E-3 0.698708  3.254E-5 8.09290 56653 298.70
298.78 1.000576 3.579331E-3 0.698630  3.250E-5 8.09316 56682 298.70
298.80 1.000576 3.586466E-3 0.698566  3.261E-5 8.09441 56712 298.70
298.78 1.000576 3.406102E-3 0.698448  3.255E-5 8.09266 56742 298.70
298.77 1.000576 3.312546E-3 0.698234  3.245E-5 8.09468 56771 298.70
298.78 1.000576 3.615877E-3 0.698504  3.236E-5 8.09365 56801 298.70
298.78 1.000576 3.568926E-3 0.698635  3.248E-5 8.09299 56831 298.70
298.79 1.000576 3.452081E-3 0.698513  3.252E-5 8.09271 56861 298.70
298.79 1.000576 3.595385E-3 0.698597  3.242E-5 8.09284 56890 298.70
298.79 1.000576 3.394064E-3 0.698652  3.252E-5 8.09400 56920 298.70
298.79 1.000576 3.475259E-3 0.698514  3.256E-5 8.09419 56950 298.70
298.79 1.000576 3.565913E-3 0.698494  3.246E-5 8.09337 56979 298.70
298.78 1.000576 3.493441E-3 0.698584  3.237E-5 8.09311 57009 298.70
298.79 1.000576 3.641456E-3 0.698582  3.250E-5 8.09267 57039 298.70
298.79 1.000576 3.685043E-3 0.698502  3.247E-5 8.09345 57068 298.70
298.79 1.000576 3.228610E-3 0.698714  3.252E-5 8.09389 57098 298.70
298.79 1.000576 3.504937E-3 0.698785  3.259E-5 8.09301 57128 298.70
298.79 1.000576 3.340533E-3 0.698714  3.232E-5 8.09394 57158 298.70
298.79 1.000576 3.506185E-3 0.698741  3.224E-5 8.09247 57187 298.70
298.79 1.000576 3.382458E-3 0.698530  3.253E-5 8.09325 57217 298.70
298.80 1.000576 3.742650E-3 0.698735  3.246E-5 8.09318 57247 298.70
298.80 1.000576 3.749870E-3 0.698906  3.247E-5 8.09249 57276 298.70
298.80 1.000576 3.356376E-3 0.698869  3.266E-5 8.09430 57306 298.70
298.80 1.000576 3.229801E-3 0.698983  3.235E-5 8.09284 57336 298.70
298.79 1.000576 3.024911E-3 0.698459  3.254E-5 8.09369 57365 298.70
298.79 1.000576 3.881387E-3 0.698728  3.250E-5 8.09414 57395 298.70
298.79 1.000576 3.529218E-3 0.698722  3.259E-5 8.09267 57425 298.70
298.79 1.000576 3.535440E-3 0.698772  3.242E-5 8.09258 57455 298.70
298.79 1.000576 3.542207E-3 0.698541  3.260E-5 8.09405 57484 298.70
298.80 1.000576 3.528002E-3 0.698759  3.249E-5 8.09280 57514 298.70
298.80 1.000576 3.655765E-3 0.698788  3.248E-5 8.09451 57544 298.70
298.81 1.000576 3.602497E-3 0.698754  3.241E-5 8.09265 57573 298.70
298.81 1.000576 3.604164E-3 0.698560  3.252E-5 8.09275 57603 298.70
298.80 1.000576 3.491632E-3 0.698588  3.267E-5 8.09292 57633 298.70
298.80 1.000576 3.378082E-3 0.698522  3.248E-5 8.09268 57662 298.70
298.80 1.000576 3.510633E-3 0.698577  3.265E-5 8.09312 57692 298.70
298.79 1.000576 3.553068E-3 0.698532  3.258E-5 8.09231 57722 298.70
298.80 1.000576 3.775237E-3 0.698451  3.235E-5 8.09210 57752 298.70
298.81 1.000576 3.285526E-3 0.698623  3.262E-5 8.09355 57781 298.70
298.80 1.000576 3.723793E-3 0.698593  3.251E-5 8.09326 57811 298.70
298.80 1.000576 3.483544E-3 0.698773  3.242E-5 8.09251 57841 298.70
298.81 1.000576 3.522385E-3 0.698710  3.257E-5 8.09486 57870 298.70
298.81 1.000576 3.564093E-3 0.698654  3.250E-5 8.09373 57900 298.70
298.78 1.000576 3.760926E-3 0.698488  3.262E-5 8.09349 57930 298.70
298.76 1.000576 3.596959E-3 0.698674  3.243E-5 8.09301 57959 298.70
298.76 1.000576 3.660624E-3 0.698918  3.251E-5 8.09237 57989 298.70
298.76 1.000576 3.989855E-3 0.698756  3.252E-5 8.09347 58019 298.70
298.76 1.000576 3.576020E-3 0.698759  3.264E-5 8.09359 58049 298.70
298.76 1.000576 3.918642E-3 0.698565  3.257E-5 8.09230 58078 298.70
298.77 1.000576 3.347931E-3 0.698713  3.263E-5 8.09369 58108 298.70
298.77 1.000576 3.727153E-3 0.698608  3.257E-5 8.09346 58138 298.65
298.78 1.000576 3.269850E-3 0.698691  3.233E-5 8.09313 58167 298.70
298.78 1.000576 3.691550E-3 0.698602  3.250E-5 8.09324 58197 298.70
298.78 1.000576 3.555900E-3 0.698717  3.254E-5 8.09306 58227 298.70
298.79 1.000576 3.517205E-3 0.698905  3.252E-5 8.09289 58256 298.70
298.76 1.000576 3.409975E-3 0.698829  3.248E-5 8.09356 58286 298.70
298.73 1.000576 3.416851E-3 0.698743  3.255E-5 8.09364 58316 298.65
298.77 1.000576 3.330371E-3 0.698787  3.254E-5 8.09223 58346 298.70
298.81 1.000576 3.422913E-3 0.698791  3.251E-5 8.09352 58375 298.70
298.78 1.000576 3.362744E-3 0.698764  3.255E-5 8.09282 58405 298.70
298.81 1.000576 3.951646E-3 0.698821  3.247E-5 8.09255 58435 298.70
298.74 1.000576 3.423986E-3 0.698559  3.259E-5 8.09457 58464 298.70
298.74 1.000576 3.524115E-3 0.698980  3.248E-5 8.09193 58494 298.65
298.75 1.000576 3.673250E-3 0.698601  3.239E-5 8.09252 58524 298.70
298.75 1.000576 3.456762E-3 0.698810  3.249E-5 8.09237 58553 298.70
298.75 1.000576 3.600422E-3 0.698788  3.249E-5 8.09267 58583 298.70
298.75 1.000576 3.506112E-3 0.698954  3.250E-5 8.09247 58613 298.70
298.74 1.000576 3.482856E-3 0.698809  3.246E-5 8.09214 58643 298.70
298.74 1.000576 3.629212E-3 0.698923  3.259E-5 8.09267 58672 298.70
298.74 1.000576 3.893400E-3 0.698875  3.253E-5 8.09299 58702 298.70
298.74 1.000576 3.786651E-3 0.699191  3.249E-5 8.09218 58732 298.70
298.74 1.000576 3.594738E-3 0.698878  3.250E-5 8.09300 58761 298.65
298.80 1.000576 3.439634E-3 0.698515  3.230E-5 8.09225 58791 298.70
298.81 1.000576 3.379148E-3 0.698997  3.257E-5 8.09325 58821 298.70
298.74 1.000576 3.592542E-3 0.698866  3.249E-5 8.09367 58850 298.70
298.74 1.000576 3.549195E-3 0.698880  3.254E-5 8.09318 58880 298.70
298.79 1.000576 3.340988E-3 0.698698  3.258E-5 8.09229 58910 298.70
298.82 1.000576 3.255053E-3 0.698954  3.248E-5 8.09282 58940 298.70
298.75 1.000576 3.695488E-3 0.698871  3.241E-5 8.09181 58969 298.70
298.78 1.000576 3.682827E-3 0.698933  3.267E-5 8.09396 58999 298.70
298.78 1.000576 3.447619E-3 0.699038  3.249E-5 8.09328 59029 298.70
298.75 1.000576 3.550628E-3 0.699006  3.252E-5 8.09328 59058 298.70
298.75 1.000576 3.695294E-3 0.698868  3.249E-5 8.09344 59088 298.70
298.78 1.000576 3.679658E-3 0.698808  3.245E-5 8.09313 59118 298.70
298.75 1.000576 3.542625E-3 0.699363  3.244E-5 8.09289 59147 298.70
298.76 1.000576 3.176460E-3 0.698934  3.251E-5 8.09229 59177 298.70
298.74 1.000576 3.818607E-3 0.699067  3.253E-5 8.09221 59207 298.70
298.81 1.000576 3.520348E-3 0.698991  3.248E-5 8.09255 59237 298.70
298.74 1.000576 3.557798E-3 0.699183  3.249E-5 8.09204 59266 298.70
298.78 1.000576 3.323697E-3 0.699062  3.233E-5 8.09285 59296 298.70
298.76 1.000576 3.611294E-3 0.699183  3.238E-5 8.09271 59326 298.70
298.79 1.000576 3.499854E-3 0.699037  3.258E-5 8.09225 59355 298.70
298.77 1.000576 3.649744E-3 0.699028  3.253E-5 8.09292 59385 298.70
298.76 1.000576 3.637909E-3 0.699080  3.234E-5 8.09281 59415 298.70
298.77 1.000576 3.434386E-3 0.699007  3.256E-5 8.09267 59444 298.70
298.77 1.000576 3.313288E-3 0.699253  3.262E-5 8.09338 59474 298.70
298.77 1.000576 3.566772E-3 0.698909  3.254E-5 8.09310 59504 298.70
298.76 1.000576 3.663669E-3 0.698863  3.246E-5 8.09250 59534 298.70
298.76 1.000576 3.342509E-3 0.698801  3.255E-5 8.09276 59563 298.70
298.76 1.000576 3.653321E-3 0.699001  3.252E-5 8.09402 59593 298.70
298.82 1.000576 3.405624E-3 0.699441  3.243E-5 8.09295 59623 298.70
298.76 1.000576 3.486845E-3 0.698917  3.249E-5 8.09306 59652 298.70
298.78 1.000576 3.590168E-3 0.698673  3.252E-5 8.09419 59682 298.70
298.78 1.000576 3.587894E-3 0.699126  3.261E-5 8.09431 59712 298.70
298.75 1.000576 3.772053E-3 0.698846  3.262E-5 8.09344 59741 298.70
298.78 1.000576 3.522398E-3 0.698845  3.248E-5 8.09252 59771 298.70
298.80 1.000576 3.667656E-3 0.698772  3.261E-5 8.09278 59801 298.70
298.83 1.000576 3.522156E-3 0.698875  3.259E-5 8.09311 59831 298.70
298.80 1.000576 3.599824E-3 0.699224  3.245E-5 8.09357 59860 298.70
298.80 1.000576 3.710892E-3 0.698993  3.253E-5 8.09377 59890 298.70
298.83 1.000576 3.637234E-3 0.698550  3.249E-5 8.09323 59920 298.70
298.79 1.000576 3.942604E-3 0.699134  3.264E-5 8.09201 59949 298.70
298.76 1.000576 3.627463E-3 0.699174  3.260E-5 8.09354 59979 298.70
298.76 1.000576 3.578299E-3 0.699006  3.259E-5 8.09317 60009 298.70
298.79 1.000576 3.244195E-3 0.699046  3.251E-5 8.09226 60038 298.70
298.78 1.000576 3.651937E-3 0.698673  3.259E-5 8.09344 60068 298.70
298.78 1.000576 3.337814E-3 0.699023  3.252E-5 8.09312 60098 298.70
298.78 1.000576 3.343905E-3 0.699005  3.241E-5 8.09251 60128 298.70
298.81 1.000576 3.422205E-3 0.699046  3.242E-5 8.09209 60157 298.70
298.82 1.000576 3.564104E-3 0.698917  3.262E-5 8.09231 60187 298.70
298.82 1.000576 3.511196E-3 0.698974  3.256E-5 8.09410 60217 298.70
298.81 1.000576 3.457518E-3 0.698879  3.240E-5 8.09257 60246 298.70
298.81 1.000576 3.173598E-3 0.698755  3.252E-5 8.09271 60276 298.70
298.81 1.000576 3.308287E-3 0.698994  3.251E-5 8.09329 60306 298.70
298.80 1.000576 3.337380E-3 0.699168  3.256E-5 8.09345 60335 298.70
298.80 1.000576 3.412805E-3 0.698866  3.264E-5 8.09347 60365 298.70
298.77 1.000576 3.405100E-3 0.698929  3.232E-5 8.09280 60395 298.70
298.77 1.000576 3.576275E-3 0.698843  3.247E-5 8.09295 60425 298.70
298.78 1.000576 3.438960E-3 0.698844  3.244E-5 8.09238 60454 298.70
298.80 1.000576 3.541575E-3 0.698673  3.262E-5 8.09288 60484 298.70
298.81 1.000576 3.386953E-3 0.698752  3.256E-5 8.09197 60514 298.70
298.82 1.000576 3.578118E-3 0.698764  3.246E-5 8.09180 60543 298.70
298.79 1.000576 3.288531E-3 0.698699  3.244E-5 8.09273 60573 298.70
298.75 1.000576 3.621564E-3 0.698522  3.275E-5 8.09453 60603 298.70
298.75 1.000576 3.720486E-3 0.699023  3.244E-5 8.09287 60632 298.70
298.75 1.000576 3.560721E-3 0.698957  3.249E-5 8.09136 60662 298.70
298.75 1.000576 3.715735E-3 0.698980  3.255E-5 8.09282 60692 298.70
298.76 1.000576 3.264956E-3 0.699244  3.257E-5 8.09247 60722 298.70
298.79 1.000576 3.381059E-3 0.698747  3.249E-5 8.09380 60751 298.70
298.75 1.000576 3.543713E-3 0.699098  3.251E-5 8.09327 60781 298.70
298.75 1.000576 3.781710E-3 0.699055  3.255E-5 8.09308 60811 298.70
298.75 1.000576 3.716938E-3 0.698946  3.257E-5 8.09309 60840 298.70
298.76 1.000576 3.468972E-3 0.699039  3.251E-5 8.09366 60870 298.70
298.76 1.000576 4.035173E-3 0.699303  3.240E-5 8.09137 60900 298.70
298.76 1.000576 3.771381E-3 0.699023  3.242E-5 8.09356 60929 298.70
298.75 1.000576 3.347875E-3 0.698799  3.257E-5 8.09231 60959 298.70
298.76 1.000576 3.598717E-3 0.699253  3.271E-5 8.09344 60989 298.70
298.76 1.000576 3.698166E-3 0.698946  3.249E-5 8.09346 61019 298.70
298.76 1.000576 3.505383E-3 0.698962  3.256E-5 8.09347 61048 298.70
298.76 1.000576 3.780575E-3 0.698796  3.256E-5 8.09376 61078 298.70
298.76 1.000576 3.440655E-3 0.699060  3.248E-5 8.09285 61108 298.70
298.77 1.000576 3.469318E-3 0.699016  3.246E-5 8.09225 61137 298.70
298.77 1.000576 3.465453E-3 0.698986  3.239E-5 8.09170 61167 298.70
298.80 1.000576 3.450390E-3 0.698811  3.268E-5 8.09361 61197 298.70
298.80 1.000576 3.703280E-3 0.698696  3.268E-5 8.09402 61226 298.70
298.80 1.000576 3.737206E-3 0.699080  3.251E-5 8.09234 61256 298.70
298.80 1.000576 3.577567E-3 0.698917  3.253E-5 8.09318 61286 298.70
298.80 1.000576 3.202454E-3 0.698847  3.238E-5 8.09145 61316 298.70
298.76 1.000576 3.661761E-3 0.698993  3.235E-5 8.09249 61345 298.70
298.79 1.000576 3.413739E-3 0.699348  3.248E-5 8.09313 61375 298.70
298.79 1.000576 3.605215E-3 0.698971  3.264E-5 8.09373 61405 298.70
298.76 1.000576 4.094296E-3 0.698852  3.243E-5 8.09345 61434 298.70
298.79 1.000576 3.893979E-3 0.699314  3.258E-5 8.09382 61464 298.70
298.78 1.000576 3.182047E-3 0.699115  3.264E-5 8.09296 61494 298.70
298.78 1.000576 3.524009E-3 0.699014  3.250E-5 8.09358 61523 298.70
298.81 1.000576 3.631395E-3 0.698986  3.268E-5 8.09368 61553 298.70
298.81 1.000576 3.634934E-3 0.698958  3.268E-5 8.09200 61583 298.70
298.78 1.000576 3.664593E-3 0.698817  3.251E-5 8.09277 61613 298.70
298.82 1.000576 3.563235E-3 0.699275  3.244E-5 8.09180 61642 298.70
298.82 1.000576 3.642759E-3 0.698901  3.258E-5 8.09200 61672 298.70
298.82 1.000576 3.223648E-3 0.699101  3.241E-5 8.09235 61702 298.70
298.82 1.000576 3.210365E-3 0.699363  3.249E-5 8.09267 61731 298.70
298.75 1.000576 3.240635E-3 0.699045  3.232E-5 8.09221 61761 298.70
298.78 1.000576 3.852846E-3 0.699189  3.255E-5 8.09267 61791 298.70
298.74 1.000576 3.538880E-3 0.699275  3.252E-5 8.09227 61820 298.70
298.75 1.000576 3.443416E-3 0.699250  3.249E-5 8.09259 61850 298.70
298.75 1.000576 3.633699E-3 0.699111  3.245E-5 8.09212 61880 298.70
298.76 1.000576 3.548928E-3 0.699063  3.259E-5 8.09273 61910 298.70
298.76 1.000576 3.414914E-3 0.698865  3.256E-5 8.09231 61939 298.70
298.81 1.000576 3.548695E-3 0.698857  3.250E-5 8.09231 61969 298.70
298.81 1.000576 3.763154E-3 0.699006  3.257E-5 8.09258 61999 298.70
298.78 1.000576 3.905471E-3 0.699033  3.259E-5 8.09229 62028 298.70
298.81 1.000576 3.484916E-3 0.699049  3.227E-5 8.09150 62058 298.70
298.82 1.000576 3.552192E-3 0.699199  3.257E-5 8.09353 62088 298.70
298.78 1.000576 3.447958E-3 0.698981  3.252E-5 8.09259 62117 298.70
298.79 1.000576 3.431754E-3 0.698842  3.260E-5 8.09264 62147 298.70
298.77 1.000576 3.683812E-3 0.699221  3.245E-5 8.09237 62177 298.70
298.77 1.000576 3.331492E-3 0.699120  3.240E-5 8.09145 62207 298.70
298.77 1.000576 3.230131E-3 0.698990  3.253E-5 8.09248 62236 298.70
298.76 1.000576 3.317213E-3 0.699063  3.259E-5 8.09313 62266 298.70
298.76 1.000576 3.514898E-3 0.699562  3.252E-5 8.09364 62296 298.70
298.76 1.000576 3.347660E-3 0.699141  3.262E-5 8.09288 62325 298.70
298.76 1.000576 3.387848E-3 0.699279  3.248E-5 8.09259 62355 298.70
298.76 1.000576 3.681314E-3 0.699043  3.255E-5 8.09294 62385 298.70
298.76 1.000576 3.604233E-3 0.699114  3.248E-5 8.09325 62414 298.70
298.77 1.000576 3.891404E-3 0.698924  3.255E-5 8.09430 62444 298.70
298.77 1.000576 3.877063E-3 0.699060  3.253E-5 8.09308 62474 298.70
298.77 1.000576 3.589599E-3 0.699189  3.245E-5 8.09356 62504 298.70
298.77 1.000576 3.767138E-3 0.698861  3.244E-5 8.09302 62533 298.70
298.77 1.000576 3.735768E-3 0.698800  3.246E-5 8.09275 62563 298.70
298.77 1.000576 3.571110E-3 0.698809  3.240E-5 8.09226 62593 298.70
298.77 1.000576 3.644526E-3 0.698928  3.249E-5 8.09248 62622 298.70
298.78 1.000576 4.000442E-3 0.698812  3.242E-5 8.09233 62652 298.70
298.77 1.000576 3.830141E-3 0.698717  3.260E-5 8.09290 62682 298.70
298.77 1.000576 3.734552E-3 0.698969  3.249E-5 8.09352 62711 298.70
298.77 1.000576 3.626139E-3 0.698783  3.254E-5 8.09257 62741 298.65
298.77 1.000576 3.439025E-3 0.698835  3.237E-5 8.09231 62771 298.70
298.78 1.000576 3.658884E-3 0.698857  3.242E-5 8.09298 62801 298.70
298.77 1.000576 3.654874E-3 0.699077  3.253E-5 8.09233 62830 298.70
298.77 1.000576 3.459096E-3 0.698859  3.240E-5 8.09176 62860 298.70
298.76 1.000576 3.511363E-3 0.698923  3.263E-5 8.09308 62890 298.70
298.77 1.000576 3.888708E-3 0.698963  3.246E-5 8.09311 62919 298.70
298.79 1.000576 3.634670E-3 0.698989  3.253E-5 8.09254 62949 298.70
298.78 1.000576 3.477875E-3 0.698996  3.244E-5 8.09262 62979 298.70
298.79 1.000576 3.403514E-3 0.699009  3.247E-5 8.09249 63008 298.70
298.78 1.000576 3.529785E-3 0.698841  3.275E-5 8.09368 63038 298.70
298.77 1.000576 3.204423E-3 0.698923  3.257E-5 8.09312 63068 298.70
298.77 1.000576 3.937915E-3 0.698860  3.259E-5 8.09352 63098 298.70
298.77 1.000576 3.584547E-3 0.699030  3.254E-5 8.09168 63127 298.65
298.78 1.000576 3.523311E-3 0.699004  3.235E-5 8.09087 63157 298.70
298.78 1.000576 3.220898E-3 0.699410  3.244E-5 8.09261 63187 298.70
298.78 1.000576 3.358589E-3 0.699150  3.253E-5 8.09275 63216 298.70
298.78 1.000576 3.485475E-3 0.698920  3.239E-5 8.09223 63246 298.70
298.78 1.000576 3.918760E-3 0.699136  3.256E-5 8.09309 63276 298.65
298.77 1.000576 3.513196E-3 0.698855  3.241E-5 8.09328 63305 298.70
298.77 1.000576 3.562484E-3 0.698977  3.256E-5 8.09345 63335 298.65
298.77 1.000576 3.409871E-3 0.699249  3.251E-5 8.09273 63365 298.70
298.77 1.000576 3.642383E-3 0.699002  3.246E-5 8.09210 63395 298.65
298.78 1.000576 3.639226E-3 0.699012  3.243E-5 8.09309 63424 298.70
298.78 1.000576 3.565678E-3 0.699061  3.254E-5 8.09217 63454 298.70
298.78 1.000576 3.659729E-3 0.698900  3.254E-5 8.09311 63484 298.70
298.77 1.000576 3.754857E-3 0.698775  3.249E-5 8.09341 63513 298.70
298.77 1.000576 3.440022E-3 0.699045  3.254E-5 8.09377 63543 298.70
298.76 1.000576 3.563876E-3 0.699063  3.262E-5 8.09348 63573 298.70
298.76 1.000576 3.462277E-3 0.699026  3.247E-5 8.09212 63602 298.65
298.77 1.000576 4.160347E-3 0.698738  3.243E-5 8.09219 63632 298.65
298.77 1.000576 3.603668E-3 0.698868  3.260E-5 8.09302 63662 298.70
298.78 1.000576 3.479601E-3 0.698961  3.252E-5 8.09220 63692 298.70
298.78 1.000576 3.529151E-3 0.698814  3.252E-5 8.09201 63721 298.70
298.78 1.000576 3.303782E-3 0.698841  3.260E-5 8.09208 63751 298.70
298.78 1.000576 3.627036E-3 0.699006  3.259E-5 8.09221 63781 298.70
298.78 1.000576 3.436171E-3 0.698988  3.254E-5 8.09267 63810 298.70
298.78 1.000576 3.576248E-3 0.699046  3.256E-5 8.09327 63840 298.70
298.79 1.000576 3.399620E-3 0.699040  3.251E-5 8.09230 63870 298.70
298.79 1.000576 3.722763E-3 0.698866  3.258E-5 8.09242 63899 298.70
298.78 1.000576 3.670084E-3 0.698917  3.268E-5 8.09306 63929 298.70
298.78 1.000576 3.437393E-3 0.699016  3.247E-5 8.09211 63959 298.70
298.77 1.000576 3.622896E-3 0.698842  3.258E-5 8.09329 63989 298.70
298.80 1.000576 3.450157E-3 0.698997  3.244E-5 8.09193 64018 298.70
298.80 1.000576 3.481561E-3 0.698665  3.246E-5 8.09203 64048 298.70
298.80 1.000576 3.613133E-3 0.699031  3.259E-5 8.09292 64078 298.70
298.76 1.000576 4.181188E-3 0.699177  3.246E-5 8.09323 64107 298.70
298.76 1.000576 3.562290E-3 0.698867  3.244E-5 8.09277 64137 298.70
298.78 1.000576 3.683311E-3 0.698925  3.252E-5 8.09269 64167 298.70
298.76 1.000576 3.724818E-3 0.699014  3.261E-5 8.09177 64196 298.70
298.76 1.000576 3.291304E-3 0.698856  3.252E-5 8.09274 64226 298.65
298.76 1.000576 3.682646E-3 0.699165  3.242E-5 8.09257 64256 298.70
298.76 1.000576 3.616467E-3 0.699223  3.258E-5 8.09318 64286 298.70
298.76 1.000576 3.385977E-3 0.698977  3.246E-5 8.09234 64315 298.70
298.76 1.000576 3.310683E-3 0.699086  3.244E-5 8.09392 64345 298.70
298.77 1.000576 3.442037E-3 0.699019  3.252E-5 8.09262 64375 298.65
298.76 1.000576 3.446681E-3 0.698899  3.248E-5 8.09288 64404 298.65
298.76 1.000576 3.230171E-3 0.698977  3.249E-5 8.09272 64434 298.70
298.76 1.000576 3.531014E-3 0.699009  3.254E-5 8.09353 64464 298.70
298.75 1.000576 3.515118E-3 0.699180  3.238E-5 8.09259 64493 298.65
298.75 1.000576 3.436018E-3 0.699148  3.245E-5 8.09278 64523 298.65
298.76 1.000576 3.825821E-3 0.699355  3.254E-5 8.09335 64553 298.65
298.75 1.000576 3.389667E-3 0.699104  3.249E-5 8.09306 64583 298.65
298.75 1.000576 3.540737E-3 0.699063  3.256E-5 8.09143 64612 298.65
298.76 1.000576 3.487482E-3 0.699031  3.254E-5 8.09300 64642 298.65
298.76 1.000576 3.230702E-3 0.699010  3.259E-5 8.09158 64672 298.70
298.80 1.000576 3.373410E-3 0.698796  3.262E-5 8.09210 64701 298.65
298.76 1.000576 3.613522E-3 0.698861  3.257E-5 8.09293 64731 298.70
298.82 1.000576 3.647411E-3 0.698761  3.261E-5 8.09365 64761 298.65
